id,list,number,trial_num,image,age,cond,agens_gender,patiens_gender,agens_num,patiens_num,comb,patiens_animacy,freq,translation,transcription,fluency,sentence_type,vf_acc,verb_number,vn_acc,patient_number,pn_acc,reaction time,word order,comments
K01,1,4,1,call-1-1-r.png,old,0,f,m,1,1,1 1,1,0.45,Бабушка зовёт дедушку,Чачамйак  кэйн'ив'н'ынын  ынпыӄлавол ,1,direct,1,1,1,1,1,1353,AVP,
K01,1,5,2,break-2-2-r.png,child,1,m,n,2,2,2 2,0,0.45,Два мальчика ломают два домика,"К'айыкмин'ыйык  накончимав'н'ынат  яя,пиляк'ат",1,inverse,1,2,1,2,1,1288,AVP,
K01,1,6,3,feed-1-2-l.png,old,0,m,f,1,2,1 2,1,0.45,Дедушка кормит двух бабушек,Ынпыӄлавола  купайг'нынын'  чачамйыт,1,direct,1,1,1,2,1,1340,AVP,
K01,1,7,4,eat-2-1-l.png,adult,1,f,n,2,1,2 1,0,0.45,Две женщины едят одно яблоко,"Навыткатпэляк'ыйык нэкув,итэйнын яблокан",1,inverse,1,1,1,1,1,1678,AVP,
K01,1,8,5,wake-2-2-r.png,adult,1,f,m,2,2,2 2,1,0.45,Две женщины будят двух мужчин,"Эльг'айык  нэкуг'эйнев,ныт  к'лавыт",1,inverse,1,2,1,2,1,2861,AVP,
K01,1,9,6,pick-1-1-r.png,child,0,m,n,1,1,1 1,0,0.45,Мальчик срывает цветок,К'айыкмин'а  купыйг'ын'нын мэчг'а,1,direct,1,1,1,1,1,2056,AVP,
K01,1,10,7,makelaugh-2-1-l.png,old,1,f,m,2,1,2 1,1,0.45,Две бабушки смешат дедушку,Чачамйык  наконачачгав'нынын  ынпыӄлавол,1,inverse,1,1,1,1,1,3515,AVP,
K01,1,11,8,carry-1-2-l.png,adult,0,f,n,1,2,1 2,0,0.45,Женщина несёт два ведра,Эльг'ата  кунн'ин'ныв'  н'ыччек вед[рата],1,direct,1,3,0,2,1,2097,AVP,
K01,1,12,9,teach-1-1-r.png,adult,0,f,m,1,1,1 1,1,0.45,Женщина учит мужчину,Эльг'ата  кунгыев'н'нын к'лавол,1,direct,1,1,1,1,1,3168,AVP,
K01,1,13,10,open-2-2-r.png,old,1,m,n,2,2,2 2,0,0.45,Двое дедушек открывают две двери,Ынпыӄлаволаийк  нэкунв'эн'эныт  тыллыт,1,inverse,1,2,1,2,1,1752,AVP,
K01,1,14,11,dress-1-2-l.png,old,0,f,m,1,2,1 2,1,0.45,Бабушка одевает двух дедушек,Чачамйа  куничг'ыпав'нын  ынпыӄлаволат,1,direct,1,1,1,2,1,1623,AVP,
K01,1,15,12,throw-2-1-l.png,child,1,m,n,2,1,2 1,0,0.45,Два мальчика бросают мяч,"К'айыкмин'ыйык  нэкунын'лын'нын  к,апыл",1,inverse,1,1,1,1,1,1420,AVP,
K01,1,16,13,cut_hair-2-2-r.png,child,1,m,f,2,2,2 2,1,0.45,Два мальчика стригут двух девочек,К'айыкмин'ыйык  накопаев'нат навыткатпиляк'айик... навыткатпиляк'ыт,1,inverse,1,2,1,2,1,1990,AVP,
K01,1,17,14,cover-1-1-r.png,adult,0,f,n,1,1,1 1,0,0.45,Женщина накрывает один цветок,Эльг'ата  к'айпын'нин мэчг'а,1,direct,1,1,1,1,1,2224,AVP,
K01,1,18,15,wash-2-1-l.png,old,1,f,m,2,1,2 1,1,0.45,Две бабушки моют одного дедушку,Чачамйык  нэкилгытэв'н'ын  ынпыӄлавол,1,inverse,1,1,1,1,1,2249,AVP,
K01,1,19,16,paint-1-2-l.png,child,0,f,n,1,2,1 2,0,0.45,Девочка красит две доски,"Н'авыткатпэляка  кэняйкэчен,нын  доскапэлякат",1,direct,1,1,1,2,1,1275,AVP,
K01,1,20,17,give_water-1-1-r.png,adult,0,m,f,1,1,1 1,1,0.45,Мужчина поит женщину,К'лавола  куникв'ычевын'нын  эльг'а,1,direct,1,1,1,1,1,2844,AVP,
K01,1,21,18,clean-2-2-r.png,old,1,f,n,2,2,2 2,0,0.45,Две бабушки чистят два пальто,"Чачамйык  након,айтг'ан,нынат  пальтот",1,inverse,1,2,1,2,1,1634,AVP,
K01,1,22,19,push-1-2-l.png,child,0,m,f,1,2,1 2,1,0.45,Мальчик толкает двух девочек,К'айыкмин'а  купынг'ылынин навыткатпиляк'ыт,1,direct,1,1,1,2,1,2362,AVP,
K01,1,23,20,water-2-1-l.png,child,1,m,n,2,1,2 1,0,0.45,Два мальчика поливают один цветок,К'айыкмин'ыйык  накимлытг'ын'ын  мэчг'а ,1,inverse,1,1,1,1,1,2535,AVP,
K01,1,24,21,pour-2-2-r.png,adult,1,m,f,2,2,2 2,1,0.45,Двое мужчин обливают двух женщин,К'лаволайык  накимлытг'ын'ын'  эльг'ат,1,inverse,1,1,0,2,1,2561,AVP,
K01,1,25,22,plant-1-1-r.png,adult,0,f,n,1,1,1 1,0,0.45,Женщина сажает одно дерево,"Эльг'ата  кунмэйн'эвн,ын'нин  уттыпиль",1,direct,1,1,1,1,1,1495,AVP,
K01,1,26,23,tie-2-1-l.png,child,1,m,f,2,1,2 1,1,0.45,Два мальчика связывают девочку,К'айыкмин'ыйык накукылг'ытын'нин  н'авыткатпиль,1,inverse,1,1,1,1,1,3727,AVP,
K01,1,27,24,boil-1-2-l.png,old,0,f,n,1,2,1 2,0,0.45,Бабушка варит две курицы,Чачамйак  копаньн'ынин  н'ыччек курицат,1,direct,1,1,1,2,1,4037,AVP,
K01,1,28,25,shoot-1-1-r.png,child,0,m,f,2,1,2 1,1,0.45,Мальчик стреляет в девочку,"К'айыкмин'а  кулк'эйн,ыв'ын'нин  навыткатпиль",1,direct,1,1,1,1,1,2061,AVP,
K01,1,29,26,hang-2-2-r.png,old,1,f,n,2,2,2 2,0,0.45,Две бабушки вешают две картины,Чачамйык  наконнёпаньн'ын  картинкат,1,inverse,1,1,0,2,1,2297,AVP,
K01,1,30,27,treat-1-2-l.png,adult,0,m,f,1,2,1 2,1,0.45,Мужчина лечит двух женщин ,К'лавола  кунмэлэв'ын'нин  эльг'ат,1,direct,1,1,1,2,1,2791,AVP,
K01,1,31,28,pull-2-1-l.png,child,1,m,n,2,1,2 1,0,0.45,Два мальчика везут санки,К'айыкмин'ыйык  нэкуг'аг'ан'нин  уетыкпиль,1,inverse,1,1,1,1,1,2163,AVP,
K01,1,32,29,scold-2-2-r.png,child,1,f,m,2,2,2 2,1,0.45,Две девочки ругают двух мальчиков,Н'авыткатпиляк'айык  накокытг'айн'... накокытг'айн'ан'ат  к'айыкмин'ат,1,inverse,1,2,1,2,1,1963,AVP,
K01,1,33,30,burn-1-1-r.png,old,0,m,n,1,1,1 1,0,0.45,Дедушка сжигает книгу,"Ынпыӄлавола кун,ын'... кун,ын,нин калик(ал)",1,direct,1,1,1,1,1,3392,AVP,
K01,1,34,31,hit-2-1-l.png,child,1,f,m,2,1,2 1,1,0.45,Две девочки бьют мальчика,Н'авыткатпиляк'айык нако... [уф] накойкыплын'нын к'айыкмин'ын,1,inverse,1,1,1,1,1,2074,AVP,
K01,1,35,32,saw-1-2-l.png,old,0,m,n,1,2,1 2,0,0.45,Дедушка пилит два бревна,Ынпыӄлавола  кыргун'нин  уттит,1,direct,1,1,1,2,1,1589,AVP,
K01,1,36,1,give_water-2-1-l.png,adult,1,f,m,2,1,2 1,1,0.45,Две женщины поят мужчину ,Эльг'айык нэкуникв'ычевын'нын к'лавол,1,inverse,1,1,1,1,1,2620,AVP,
K01,1,37,2,break-1-2-l.png,child,0,f,n,1,2,1 2,0,0.45,Девочка ломает два домика,Н'авыткатпиляк'а кончимав'ын'нин яяпэлякыт,1,direct,1,1,1,2,1,1551,AVP,
K01,1,38,3,push-2-2-r.png,child,1,f,m,2,2,2 2,1,0.45,Две девочки толкают двух мальчиков,Н'авыткатпиляк'айык нэкупынг'ылыныт к'айыкмин'ат,1,inverse,1,2,1,2,1,2297,AVP,
K01,1,39,4,eat-1-1-r.png,adult,0,m,n,1,1,1 1,0,0.45,Мужчина ест яблоко,"К'лавола кугитэн,нин яблоко",1,direct,1,1,1,1,1,2007,AVP,
K01,1,40,5,pour-1-2-l.png,adult,0,f,m,1,2,1 2,1,0.45,Женщина обливает двух мужчин,Эльг'ата кимлытг'ын'нин клавыт,1,direct,1,1,1,2,1,1754,AVP,
K01,1,41,6,pick-2-1-l.png,child,1,f,n,2,1,2 1,0,0.45,Две девочки срывают один цветок,Н'авыткатпиляк'айык накупыйг'ын'ын мэчг'а ,1,inverse,1,1,1,1,1,3464,AVP,
K01,1,42,7,tie-1-1-r.png,child,0,f,m,1,1,1 1,1,0.45,Девочка связывает мальчика,Н'авытк'атпиляк'а  кукылтын'нин  к'айыкмин'ын,1,direct,1,1,1,1,1,2241,AVP,
K01,1,43,8,carry-2-2-r.png,adult,1,m,n,2,2,2 2,0,0.45,Двое мужчин несут два ведра,К'лаволаек нэкунн'ин'нын кукэн'эт,1,inverse,1,1,0,2,1,2677,AVP,
K01,1,44,9,call-2-1-l.png,old,1,m,f,2,1,2 1,1,0.45,Двое дедушек зовут бабушку,Ынпыӄлаволайык накокэтг'айн'ив'ын'нин чачамэ,1,inverse,1,1,1,1,1,1542,AVP,
K01,1,45,10,clean-1-2-l.png,old,0,m,n,1,2,1 2,0,0.45,Дедушка чистит два пальто,"Ынпыӄлавола кон,айк'ытв'ан'нэн пальтот",1,direct,1,1,1,2,1,1299,AVP,
K01,1,46,11,feed-2-2-r.png,old,1,f,m,2,2,2 2,1,0.45,Две бабушки кормят двух дедушек,Чачамйык накопайн'ынат ынпыӄлаволат,1,inverse,1,2,1,2,1,1606,AVP,
K01,1,47,12,water-1-1-r.png,child,0,f,n,1,1,1 1,0,0.45,Девочка поливает цветок,Н'авытк'атпиляк'а кимлытг'ын'нин мэчг'а ,1,direct,1,1,1,1,1,1806,AVP,
K01,1,48,13,wake-1-2-l.png,adult,0,m,f,1,2,1 2,1,0.45,Мужчина будит двух женщин,К'лавола куныкг'евын'нин эльг'ата,1,direct,1,1,1,2,1,4232,AVP,
K01,1,49,14,plant-2-1-l.png,adult,1,m,n,2,1,2 1,0,0.45,Двое мужчин сажают дерево,К'лаволаийк  нэкунынн'эв'ин  уттыпиль,1,inverse,1,1,1,1,1,2218,AVP,
K01,1,50,15,makelaugh-1-1-r.png,old,0,m,f,1,1,1 1,1,0.45,Дедушка смешит бабушку,Ынпыӄлавола коначачгав'ын'нэн чачамэ,1,direct,1,1,1,1,1,2279,AVP,
K01,1,51,16,boil-2-2-r.png,adult,1,f,n,2,2,2 2,0,0.45,Две женщины варят две курицы,Эльг'а... Эльг'ат... Эльг'тайык накук... Эльг'айык накуквайненат... что-то я наверно... Эльг'айык накопаньн'ынат корецат,1,inverse,1,2,1,2,1,2601,AVP,
K01,1,52,17,teach-2-1-l.png,adult,1,m,f,2,1,2 1,1,0.45,Двое мужчин учат одну женщину,К'лаволайык нэкуейгулэвын'нин эльг'а,1,inverse,1,1,1,1,1,2411,AVP,
K01,1,53,18,hang-1-2-l.png,old,0,m,n,1,2,1 2,0,0.45,Дедушка вешает две картины,Ынпыӄлавола  коннёпаньн'ын  картинкат,1,direct,1,1,1,2,1,1807,AVP,
K01,1,54,19,dress-2-2-r.png,old,1,m,f,2,2,2 2,1,0.45,Два дедушки одевают двух бабушек,Ынпыӄлаволаийк наконкеметг'эпын'нат чачамйыт,1,inverse,1,2,1,2,1,1293,AVP,
K01,1,55,20,pull-1-1-r.png,child,1,f,n,1,1,1 1,0,0.45,Девочка везёт санки,Н'авытк'атпиляк'а кыг'аг'ан'нэн уетыкпиль,1,direct,1,1,1,1,1,1627,AVP,
K01,1,56,21,cut_hair-1-2-l.png,child,0,f,m,1,2,1 2,1,0.45,Девочка стрижет двух мальчиков,Н'авытк'атпиляк'а копаев'н'ын к'айыкминат,1,direct,1,1,1,2,1,1307,AVP,
K01,1,57,22,burn-2-1-l.png,old,1,f,n,2,1,2 1,0,0.45,Две бабушки сжигают книгу,Чачамйык нэкун'ын'ын каликал,1,inverse,1,1,1,1,1,1529,AVP,
K01,1,58,23,wash-1-1-r.png,old,0,m,f,1,1,1 1,1,0.45,Дедушка моет бабушку,Ынпыӄлавола кылгытэв'ын'нин чачамэ,1,direct,1,1,1,1,1,1052,AVP,
K01,1,59,24,saw-2-2-r.png,adult,1,m,n,2,2,2 2,0,0.45,Два мужчины пилят два бревна,К'лаволаийк нэкыргунэтын уттыт,1,inverse,1,1,0,2,1,3049,AVP,
K01,1,60,25,shoot-2-1-l.png,child,1,f,m,2,1,2 1,1,0.45,Две девочки стреляют в мальчика,Навыткатпиляк'айык нэкулк'эйнэвын'нин к'айыкмин'ын,1,inverse,1,1,1,1,1,1707,AVP,
K01,1,61,26,open-1-2-l.png,old,0,f,n,1,2,1 2,0,0.45,Бабушка открывает две двери ,Чачамйа кунв'эн'энын'нин тыллытыл,1,direct,1,1,1,1,0,1486,AVP,
K01,1,62,27,treat-2-2-r.png,adult,1,f,m,2,2,2 2,1,0.45,Две женщины лечат двух мужчин,Эльг'айык нэкунмэлэв'ын'нит к'лаволыт,1,inverse,1,2,1,2,1,2785,AVP,
K01,1,63,28,throw-1-1-r.png,child,0,f,n,1,1,1 1,0,0.45,Девочка бросает мяч,Н'авытк'атпиляк'а кунын'лын'нин к'апыл,1,direct,1,1,1,1,1,1962,AVP,
K01,1,64,29,scold-1-2-l.png,child,0,m,f,1,2,1 2,1,0.45,Мальчик ругает двух девочек,К'айыкмин'а кокытг'айн'ан'нэн эльг'апэляк'ыт,1,direct,1,1,1,2,1,1246,AVP,
K01,1,65,30,cover-2-1-l.png,adult,1,m,n,2,1,2 1,0,0.45,Два мужчины накрывают цветок ,"К'лаволаийк  нэкунынн,эв'н,ын  в'ытв'ыт",1,inverse,1,1,1,1,1,2146,AVP,
K01,1,66,31,hit-1-1-r.png,child,0,m,f,1,1,1 1,1,0.45,Мальчик бьет девочку,К'айыкмин'а койкыплын'нэн н'авытк'атпиль,1,direct,1,1,1,1,1,1851,AVP,
K01,2,4,1,call-2-2-r.png,old,1,f,m,2,2,2 2,1,0.45,Две бабушки зовут двух дедушек,Чачамйык  накокэтг'айн'ив'ын'нит  ынпыӄлаволат,1,inverse,1,2,1,2,1,2507,AVP,
K01,2,5,2,break-1-1-r.png,child,0,m,n,1,1,1 1,0,0.45,Мальчик ломает домик,К'айыкмин'а кокунчимав'н'ынан  яяпиль,1,direct,1,1,1,1,1,2002,AVP,
K01,2,6,3,feed-2-1-l.png,old,1,m,f,2,1,2 1,1,0.45,Два дедушки кормят бабушку,Ынпыӄлаволаийк  накопайг'нынын'  чачамэ,1,inverse,1,1,1,1,1,1447,AVP,
K01,2,7,4,eat-1-2-l.png,adult,0,f,n,1,2,1 2,0,0.45,Женщина ест два яблока,Эльг'ата  кунув'нын  яблокат,1,direct,1,1,1,2,1,4155,AVP,
K01,2,8,5,wake-1-1-r.png,adult,0,f,m,1,1,1 1,1,0.45,Женщина будит мужчину,Эльг'ата  куныкъевын'нин  к'лавол,1,direct,1,1,1,1,1,2753,AVP,
K01,2,9,6,pick-2-2-r.png,child,1,m,n,2,2,2 2,0,0.45,Два мальчика срывают два цветка,К'айыкмин'ыйык  нэкупыйг'ын'ныт  мэчг'ат,1,inverse,1,2,1,2,1,2154,AVP,
K01,2,10,7,makelaugh-1-2-l.png,old,0,f,m,1,2,1 2,1,0.45,Бабушка смешит двух дедушек,Чачамйак  коначачгав'ын'нэн  ынпыӄлаволат,1,direct,1,1,1,2,1,2868,AVP,
K01,2,11,8,carry-2-1-l.png,adult,1,f,n,2,1,2 1,0,0.45,Две женщины несут ведро,Н'авыткатпэлякайык  нэкимт'ин'нын  кукэн'эт,1,inverse,1,1,1,2,0,1842,AVP,
K01,2,12,9,teach-2-2-r.png,adult,1,f,m,2,2,2 2,1,0.45,Две женщины учат двух мужчин,"Эль... Эльг'айык  накумитетвайнен,нат к'лаволыт",1,inverse,1,2,1,2,1,2212,AVP,
K01,2,13,10,open-1-1-r.png,old,0,m,n,1,1,1 1,0,0.45,Дедушка открывает дверь,Ынпыӄлавола  кунв'эн'энын'нин   тыллытыл,1,direct,1,1,1,1,1,1254,AVP,
K01,2,14,11,dress-2-1-l.png,old,1,f,m,2,1,2 1,1,0.45,Две бабушки одевают дедушку,Чачамйак   накуничг'ыпав'нын   ынпыӄлавол,1,inverse,1,1,1,1,1,2345,AVP,
K01,2,15,12,throw-1-2-l.png,child,0,m,n,1,2,1 2,0,0.45,Мальчик бросает два мяча,К'айыкмин'а  кунын'лын'нин  к'апылат,1,direct,1,1,1,2,1,2695,AVP,
K01,2,16,13,cut_hair-1-1-r.png,child,0,m,f,1,1,1 1,1,0.45,Мальчик стрижет девочку,К'айыкмин'а  копаев'н'ын  н'авытк'атпиль,1,direct,1,1,1,1,1,1471,AVP,
K01,2,17,14,cover-2-2-r.png,adult,1,f,n,2,2,2 2,0,0.45,Две женщины накрывают два цветка,"Эльг'айык  нэкунынн,эв'н,ыт  мэчг'ат",1,inverse,1,2,1,2,1,3917,AVP,
K01,2,18,15,wash-1-2-l.png,old,0,f,m,1,2,1 2,1,0.45,Бабушка моет двух дедушек,Чачамйак  кылгытэв'ын'нин  ынпыӄлаволат,1,direct,1,1,1,2,1,1592,AVP,
K01,2,19,16,paint-2-1-l.png,child,1,f,n,2,1,2 1,0,0.45,Две девочки красят доску,Н'авыткатпэлякайык  на.. накомалынын  уттыпиль,1,inverse,1,1,1,1,1,1242,AVP,
K01,2,20,17,give_water-2-2-r.png,adult,1,m,f,2,2,2 2,1,0.45,Два мужчины поят двух женщин,К'лаволаийк  нэкуникв'ычевын'ныт  элг'ат,1,inverse,1,2,1,2,1,2241,AVP,
K01,2,21,18,clean-1-1-r.png,old,0,f,n,1,1,1 1,0,0.45,Бабушка чистит пальто,"Чачамйак  кон,айк'ытв'ан'нэн  ичг'ын",1,direct,1,1,1,1,1,2325,AVP,
K01,2,22,19,push-2-1-l.png,child,1,m,f,2,1,2 1,1,0.45,Два мальчика толкают девочку,К'айыкмин'ыйык  нэкупынг'ылынын  н'авытк'атпиль,1,inverse,1,1,1,1,1,1873,AVP,
K01,2,23,20,water-1-2-l.png,child,0,m,n,1,2,1 2,0,0.45,Мальчик поливает два цветка,К'айыкмин'а  кимлытг'ын'нин  мэчг'ат,1,direct,1,1,1,2,1,1903,AVP,
K01,2,24,21,pour-1-1-r.png,adult,0,m,f,1,1,1 1,1,0.45,Мужчина обливает женщину,... К'лавола  кимлытг'ын'ын'  эльг'а,1,direct,1,1,1,1,1,1932,AVP,
K01,2,25,22,plant-2-2-r.png,adult,1,f,n,2,2,2 2,0,0.45,Две женщины сажают два дерева,Эльг'айык ... нэкунынн'эв'ит  уттыпэлякат,1,inverse,1,2,1,2,1,1830,AVP,
K01,2,26,23,tie-1-2-l.png,child,0,m,f,1,2,1 2,1,0.45,Мальчик связывает двух девочек,К'айыкмин'а   кукылтын'нин  навыткатпиляк'ыт,1,direct,1,1,1,2,1,1154,AVP,
K01,2,27,24,boil-2-1-l.png,old,1,f,n,2,1,2 1,0,0.45,Две бабушки варят курицу,... Чачамйык  накопаньн'ынин  курицан,1,inverse,1,1,1,1,1,2225,AVP,
K01,2,28,25,shoot-2-2-r.png,child,1,m,f,2,2,2 2,1,0.45,Два мальчика стреляют в двух девочек ,"К'айыкмин'ыйык  нэкулк'эйн,ыв'ын'нит   навыткатпиляк'ыт",1,inverse,1,2,1,2,1,1503,AVP,
K01,2,29,26,hang-1-1-r.png,old,0,f,n,1,1,1 1,0,0.45,Бабушка вешает картину,Чачамйак  коннёпаньн'ын  картинкан,1,direct,1,1,1,1,1,1917,AVP,
K01,2,30,27,treat-2-1-l.png,adult,1,m,f,2,1,2 1,1,0.45,Два мужчины лечат женщину ,К'лаволаийк  нэкунмэлэв'ын'нин  эльг'а,1,inverse,1,1,1,1,1,3321,AVP,
K01,2,31,28,pull-1-2-l.png,child,0,m,n,1,2,1 2,0,0.45,Мальчик везёт двое санок,К'айыкмин'а  каа.. каг'аг'ан'нин  уетыкпэлякат,1,direct,1,1,1,2,1,1251,AVP,
K01,2,32,29,scold-1-1-r.png,child,0,f,m,1,1,1 1,1,0.45,Девочка ругает мальчика ,Н'авыткатпиляк'а  ... кокытг'айн'ан'ан  к'айыкмин'ын,1,direct,1,1,1,1,1,1183,AVP,
K01,2,33,30,burn-2-2-r.png,old,1,m,n,2,2,2 2,0,0.45,Два дедушки сжигают две книги ,"Ынпыӄлаволайык  нэкун,ын,нин.. каликал... калик то есть",1,inverse,1,1,0,1,0,2793,AVP,
K01,2,34,31,hit-1-2-l.png,child,0,f,m,1,2,1 2,1,0.45,Девочка бьет двух мальчиков,Н'авыткатпиляк'а  койкыплын'нын  к'айыкмин'ат,1,direct,1,1,1,2,1,1396,AVP,
K01,2,35,32,saw-2-1-l.png,old,1,m,n,2,1,2 1,0,0.45,Два дедушки пилят бревно,Ынпыӄлаволайык  нэкучг'ынин  уттитпиль,1,inverse,1,1,1,1,1,2361,AVP,
K01,2,36,1,give_water-1-2-l.png,adult,0,f,m,1,2,1 2,1,0.45,Женщина поит двух мужчин,Эльг'ата  куникв'ычев...  куникв'ычевын'нын  к'лаволат,1,direct,1,1,1,2,1,2294,AVP,
K01,2,37,2,break-2-1-l.png,child,1,f,n,2,1,2 1,0,0.45,Две девочки ломают домик,Н'авыткатпэлякаийк  нэкунчимав'ын'нин  яяпиль,1,inverse,1,1,1,1,1,1245,AVP,
K01,2,38,3,push-1-1-r.png,child,0,f,m,1,1,1 1,1,0.45,Девочка толкает мальчика,Н'авыткатпэляка купынг'ылынын к'айыкмин'ын,1,direct,1,1,1,1,1,1475,AVP,
K01,2,39,4,eat-2-2-r.png,adult,1,m,n,2,2,2 2,0,0.45,Два мужчины едят два яблока,"К'лаволаийк  нэкув,итэйныт  яблокат",1,inverse,1,2,1,2,1,1908,AVP,
K01,2,40,5,pour-2-1-l.png,adult,1,f,m,2,1,2 1,1,0.45,Две женщины обливают мужчину ,Эльг'айык  нэкимлытг'ын'нин  к'лавол,1,inverse,1,1,1,1,1,1936,AVP,
K01,2,41,6,pick-1-2-l.png,child,0,f,n,1,2,1 2,0,0.45,Девочка срывает два цветка,Н'авытк'атпил[яка]  купыйг'ын'ныт  мэчг'ат,1,direct,1,2,0,2,1,1126,AVP,
K01,2,42,7,tie-2-2-r.png,child,1,f,m,2,2,2 2,1,0.45,Две девочки связывают двух мальчиков,Н'авытк'атпиляк'айык  нэкукылтын'нит   к'айыкмин'ат,1,inverse,1,2,1,2,1,2397,AVP,
K01,2,43,8,carry-1-1-r.png,adult,0,m,n,1,1,1 1,0,0.45,Мужчина несёт ведро,К'лавола  кимтин'нын  кукэн'эн,1,direct,1,1,1,1,1,2850,AVP,
K01,2,44,9,call-1-2-l.png,old,0,m,f,1,2,1 2,1,0.45,Дедушка зовет двух бабушек ,Ынпыӄлавола кокэтг'айн'ив'ын'нит чачамйыт,1,direct,1,2,0,2,1,3003,AVP,
K01,2,45,10,clean-2-1-l.png,old,1,m,n,2,1,2 1,0,0.45,Два дедушки чистят пальто ,"Ынпыӄлаволайык  након,айк'ытв'ан'нэн  ичг'ын",1,inverse,1,1,1,1,1,2113,AVP,
K01,2,46,11,feed-1-1-r.png,old,0,f,m,1,1,1 1,1,0.45,Бабушка кормит дедушку,Чачамйак  копайн'ынин  ынпыӄлавол,1,direct,1,1,1,1,1,1634,AVP,
K01,2,47,12,water-2-2-r.png,child,1,f,n,2,2,2 2,0,0.45,Две девочки поливают два цветка ,Н'авытк'атпэлякайык  накимлытг'ын'нин  мэчг'ат,1,inverse,1,1,0,2,1,1177,AVP,
K01,2,48,13,wake-2-1-l.png,adult,1,m,f,2,1,2 1,1,0.45,Два мужчины будят женщину ,К'лаволаийк нэкуныкъевын'нин  эльг'а,1,inverse,1,1,1,1,1,2581,AVP,
K01,2,49,14,plant-1-2-l.png,adult,0,m,n,1,2,1 2,0,0.45,Мужчина сажает два дерева ,К'лавола  кунынн'эв'ин  мэчг'ат,1,direct,1,1,1,2,1,2357,AVP,
K01,2,50,15,makelaugh-2-2-r.png,old,1,m,f,2,2,2 2,1,0.45,Два дедушки смешат двух бабушек,Ынпыӄлаволаийк  наконачачгав'ын'нэн  чачамйыт,1,inverse,1,1,0,2,1,2209,AVP,
K01,2,51,16,boil-1-1-r.png,adult,0,f,n,1,1,1 1,0,0.45,Женщина варит курицу,Эльг'ан...  эльг'ана  копаньн'ынин  курицан,1,direct,1,1,1,1,1,3765,AVP,
K01,2,52,17,teach-1-2-l.png,adult,0,m,f,1,2,1 2,1,0.45,Мужчина учит двух женщин ,К'лавола нак... куейгулэвын'нин  эльг'ат,1,direct,1,1,1,2,1,1806,AVP,
K01,2,53,18,hang-2-1-l.png,old,1,m,n,2,1,2 1,0,0.45,Два дедушки вешают картину,Ынпыӄлаволаийк  наконнёпаньн'ын  картинкан,1,inverse,1,1,1,1,1,2060,AVP,
K01,2,54,19,dress-1-1-r.png,old,0,m,f,1,1,1 1,1,0.45,Дедушка одевает бабушку,Ынпыӄлавола  коничг'ыпав'нын  чачамэ,1,direct,1,1,1,1,1,1686,AVP,
K01,2,55,20,pull-2-2-r.png,child,1,f,n,2,2,2 2,0,0.45,Две девочки везут двое санок ,Н'авытк'атпиляк'айык накуг'аг'ан'нэт  уетыкпэлякат,1,inverse,1,2,1,2,1,1143,AVP,
K01,2,56,21,cut_hair-2-1-l.png,child,1,f,m,2,1,2 1,1,0.45,Две девочки стригут мальчика,Н'авыткатпиляк'айык  накопаев'н'ын  к'айыкмин'ын,1,inverse,1,1,1,1,1,1105,AVP,
K01,2,57,22,burn-1-2-l.png,old,0,f,n,1,2,1 2,0,0.45,Бабушка сжигает две книги,Чачамйа  кун'ын'ыт  калыт,1,direct,1,2,0,2,1,2898,AVP,
K01,2,58,23,wash-2-2-r.png,old,1,m,f,2,2,2 2,1,0.45,Два дедушки моют двух бабушек,Ынпыӄлаволаийк нэкылгытэв'ын'нит  чачамйыт,1,inverse,1,2,1,2,1,1511,AVP,
K01,2,59,24,saw-1-1-r.png,adult,0,m,n,1,1,1 1,0,0.45,Мужчина пилит бревно,К'лавола кучг'ынин  уттитпиль,1,direct,1,1,1,1,1,2198,AVP,
K01,2,60,25,shoot-1-2-l.png,child,0,f,m,1,2,1 2,1,0.45,Девочка стреляет в двух мальчиков ,Н'авытк'атпиляк'а  кулк'эйнэвын'нин к'айыкмин'ат,1,direct,1,1,1,2,1,1506,AVP,
K01,2,61,26,open-2-1-l.png,old,1,f,n,2,1,2 1,0,0.45,Две бабушки открывают дверь,Чачамйык  нэкунв'эн'энын'нин   тыллытыл,1,inverse,1,1,1,1,1,1561,AVP,
K01,2,62,27,treat-1-1-r.png,adult,0,f,m,1,1,1 1,1,0.45,Женщина лечит мужчину ,Эльг'ата  кунмэлэв'ын'нин  к'лавол,1,direct,1,1,1,1,1,1801,AVP,
K01,2,63,28,throw-2-2-r.png,child,1,f,n,2,2,2 2,0,0.45,Две девочки бросают два мяча,Н'авытк'атпэлякайык нэкунын'лын'нит к'апылат,1,inverse,1,2,1,2,1,2264,AVP,
K01,2,64,29,scold-2-1-l.png,child,1,m,f,2,1,2 1,1,0.45,Два мальчика ругают девочку,К'айыкмин'ыйык  накокытг'айн'ан'нэн  н'авытк'атпиль,1,inverse,1,1,1,1,1,1360,AVP,
K01,2,65,30,cover-1-2-l.png,adult,0,m,n,1,2,1 2,0,0.45,Мужчина накрывает два цветка ,"К'лавола ... купокайпэнэв'н,ын  мэчг'ат",1,direct,1,1,1,2,1,1734,AVP,
K01,2,66,31,hit-2-2-r.png,child,1,m,f,2,2,2 2,1,0.45,Два мальчика бьют двух девочек,К'айыкмин'ыйык на... накойкыплын'нэн на.. н'авытк'атпиляк'айик... т,1,inverse,1,1,0,2,1,1215,AVP,
K01,2,67,32,paint-1-1-r.png,adult,0,m,n,1,1,1 1,0,0.45,Мальчик красит доску,"К'айыкмин'а  кэняйкэчен,нын  доскан",1,direct,1,1,1,1,1,1239,AVP,
K02,2,4,1,call-2-2-r.png,old,1,f,m,2,2,2 2,1,0.40,Две бабушки зовут двух дедушек,Аняпэляка  ко...кокоман'алан' апапо.. апапонав',1,intransitive,0,3,0,3,0,2453,AVP,
K02,2,5,2,break-1-1-r.png,child,0,m,n,1,1,1 1,0,0.40,Мальчик ломает домик,К'ымин'ын..  к'ымин'а кунчимав'н'ынин  яян'а,1,direct,1,1,1,1,1,1693,AVP,
K02,2,6,3,feed-2-1-l.png,old,1,m,f,2,1,2 1,1,0.40,Два дедушки кормят бабушку,.. Апапэляка куенэв'йэньн'ын аняпэль,1,direct,0,1,1,1,1,2524,AVP,
K02,2,7,4,eat-1-2-l.png,adult,0,f,n,1,2,1 2,0,0.40,Женщина ест два яблока,аа...Н'эвыткэтэ куенун'нин  яблокав',1,direct,1,1,1,3,0,4475,AVP,
K02,2,8,5,wake-1-1-r.png,adult,0,f,m,1,1,1 1,1,0.40,Женщина будит мужчину,Н'эвыткэтэ...  куныкъев'н'ынин  г'оля,1,direct,1,1,1,1,1,1934,AVP,
K02,2,9,6,pick-2-2-r.png,child,1,m,n,2,2,2 2,0,0.40,Два мальчика срывают два цветка,К'ымин'ы.. К'ымин'ыпэляк'у нэкуй.. нэку.. накуляпн'ынав' в'ытв'ыто,1,inverse,1,3,0,3,0,1443,AVP,
K02,2,10,7,makelaugh-1-2-l.png,old,0,f,m,1,2,1 2,1,0.40,Бабушка смешит двух дедушек,Аняпэляка...  ку...кон..коначачгав'н'ынэв'  г'оляв',1,direct,1,3,0,3,0,2052,AVP,
K02,2,11,8,carry-2-1-l.png,adult,1,f,n,2,1,2 1,0,0.40,Две женщины несут ведро,Н'авык'к'алюта  нэкуеньн'ын  ведро,1,inverse,1,1,1,1,1,1806,AVP,
K02,2,12,9,teach-2-2-r.png,adult,1,f,m,2,2,2 2,1,0.40,Две женщины учат двух мужчин,"..Н'эвыткэв' наку.. накояньн,ы..нав'  г'оляв'э",1,inverse,1,3,0,3,0,3697,AVP,приводят
K02,2,13,10,open-1-1-r.png,old,0,m,n,1,1,1 1,0,0.40,Дедушка открывает дверь,Апапэляка  куенв'эн'эньн'ынин   тыллытыл,1,direct,1,1,1,1,1,1965,AVP,
K02,2,15,12,throw-1-2-l.png,child,0,m,n,1,2,1 2,0,0.40,Мальчик бросает два мяча,К'ымин'а ку... э. куйичвэтын' к'аплота,1,direct,1,1,1,3,0,4173,AVP,мяч в творительным
K02,2,16,13,cut_hair-1-1-r.png,child,0,m,f,1,1,1 1,1,0.40,Мальчик стрижет девочку,К'ымин'а  копаен'нэн  ӈавык'к'алю,1,direct,1,1,1,1,1,1949,AVP,
K02,2,17,14,cover-2-2-r.png,adult,1,f,n,2,2,2 2,0,0.40,Две женщины накрывают два цветка,Н'ав... н'авык'к'алюта нако.. нак.. накой.. накойон'ав' в'ытв'ыто,1,inverse,1,3,0,3,0,1860,AVP,
K02,2,18,15,wash-1-2-l.png,old,0,f,m,1,2,1 2,1,0.40,Бабушка моет двух дедушек,Аняпэляка  кунмытн'нин  г'оляв',1,direct,1,1,1,3,0,1649,AVP,
K02,2,19,16,paint-2-1-l.png,child,1,f,n,2,1,2 1,0,0.40,Две девочки красят доску,Н'авык'к'алюта накок.. накокрасканьн'ын дос..доскапэль,1,inverse,1,1,1,1,1,1596,AVP,
K02,2,20,17,give_water-2-2-r.png,adult,1,m,f,2,2,2 2,1,0.40,Два мужчины поят двух женщин,Г'олята  накончаёв'н'ынав'  н'ав'.. н'авычӈо,1,inverse,1,3,0,3,0,1891,AVP,
K02,2,21,18,clean-1-1-r.png,old,0,f,n,1,1,1 1,0,0.40,Бабушка чистит пальто,Аняпэляка  ээ кучистыньн'ынин  пальтон,1,direct,1,1,1,1,1,1532,AVP,
K02,2,22,19,push-2-1-l.png,child,1,m,f,2,1,2 1,1,0.40,Два мальчика толкают девочку,К'айыкмин'а  на.. н... накойк.. накойкыплын'нэн  ӈавык'к'алю,1,inverse,1,1,1,1,1,1553,AVP,бьют
K02,2,23,20,water-1-2-l.png,child,0,m,n,1,2,1 2,0,0.40,Мальчик поливает два цветка,ээ  К'айыкмин'а ... ку..поливан'ынын  в'ытв'ыто,1,direct,1,1,1,3,0,3345,AVP,
K02,2,25,22,plant-2-2-r.png,adult,1,f,n,2,2,2 2,0,0.40,Две женщины сажают два дерева,Н'авык'к'алюта  нэ... гаёлэнав'  в'ытв'ыто,1,past,NA,3,0,3,0,2058,AVP,нэ не присоединяется к глаголу
K02,2,27,24,boil-2-1-l.png,old,1,f,n,2,1,2 1,0,0.40,Две бабушки варят курицу,Аняпэляка на..копаньн'ын курица,1,inverse,1,1,1,1,1,2505,AVP,непереходный
K02,2,28,25,shoot-2-2-r.png,child,1,m,f,2,2,2 2,1,0.40,Два мальчика стреляют в двух девочек ,К'айык.. к'айыкмин'а ээ.. нэ..ганмылэнат  ӈавык'к'алют,1,inverse,1,2,1,2,1,3021,AVP,прошедшее 2
K02,2,29,26,hang-1-1-r.png,old,0,f,n,1,1,1 1,0,0.40,Бабушка вешает картину,Аняпэляка коннёпаньн'ынэн  портрет,1,direct,1,1,1,1,1,2234,AVP,
K02,2,30,27,treat-2-1-l.png,adult,1,m,f,2,1,2 1,1,0.40,Два мужчины лечат женщину ,Г'олята  нэкумэлэв'ын'ынын  аняпэль... кутг'ылын',1,inverse,1,1,1,1,1,3635,AVPV,кутг'ылын' - болеет
K02,2,32,29,scold-1-1-r.png,child,0,f,m,1,1,1 1,1,0.40,Девочка ругает мальчика ,Н'авык'к'алюта кокытг'айн'ан'нэн  к'айыкмин'ын,1,direct,1,1,1,1,1,1636,AVP,
K02,2,33,30,burn-2-2-r.png,old,1,m,n,2,2,2 2,0,0.40,Два дедушки сжигают две книги ,Апапэляко  нэкункэнгэньн'ынэв' книгав',1,inverse,1,3,0,3,0,1917,AVP,произнесено немного не так
K02,2,34,31,hit-1-2-l.png,child,0,f,m,1,2,1 2,1,0.40,Девочка бьет двух мальчиков,Н'авык'к'алю  котак'йын'чын'эн  к'айыкмин'ын,1,direct,1,1,1,1,0,1622,AVP,
K02,2,35,32,saw-2-1-l.png,old,1,m,n,2,1,2 1,0,0.40,Два дедушки пилят бревно,Апапо.. апаполь.. апапопэляко нэкучвиньн'ынэв' утту,1,inverse,1,3,0,1,1,2693,AVP,падеж н ф 
K02,2,36,1,give_water-1-2-l.png,adult,0,f,m,1,2,1 2,1,0.40,Женщина поит двух мужчин,Н'эвыткэтэ кончаёв'н'энэв'  г'оляв',1,direct,1,3,0,3,0,4611,AVP,
K02,2,37,2,break-2-1-l.png,child,1,f,n,2,1,2 1,0,0.40,Две девочки ломают домик,Н'авык'к'алюта накунчимав'н'ын  яян'а,1,inverse,1,1,1,1,1,1564,AVP,
K02,2,38,3,push-1-1-r.png,child,0,f,m,1,1,1 1,1,0.40,Девочка толкает мальчика,Н'авык'к'алюта  койкыплын'нэн  к'айыкмин'ын,1,direct,1,1,1,1,1,1980,AVP,
K02,2,39,4,eat-2-2-r.png,adult,1,m,n,2,2,2 2,0,0.40,Два мужчины едят два яблока,Г'олята кэнулинэв'  яблокав',1,direct,0,3,0,3,0,1879,AVP,
K02,2,40,5,pour-2-1-l.png,adult,1,f,m,2,1,2 1,1,0.40,Две женщины обливают мужчину ,Н'авык'к'алю кимл.. н'авычӈа .... гэ..гэмлытвилин  г'оля,1,past,NA,1,1,1,1,1635,AVP,прошедшее 2
K02,2,41,6,pick-1-2-l.png,child,0,f,n,1,2,1 2,0,0.40,Девочка срывает два цветка,Н'авык'к'алюта куляпн'ынин в'ытв'ыто,1,direct,1,1,1,3,0,2385,AVP,
K02,2,42,7,tie-2-2-r.png,child,1,f,m,2,2,2 2,1,0.40,Две девочки связывают двух мальчиков,Н'авык'к'алюта  к'айыкмин'у... гэ... кукылтын'нин,1,other,0,1,0,3,0,1923,APV,подсказка
K02,2,43,8,carry-1-1-r.png,adult,0,m,n,1,1,1 1,0,0.40,Мужчина несёт ведро,э.. Г'олята кунын'нин ведро,1,direct,1,1,1,1,1,4808,AVP,
K02,2,44,9,call-1-2-l.png,old,0,m,f,1,2,1 2,1,0.40,Дедушка зовет двух бабушек ,Апапэляка кукумн'атын'.. куку.. кукумн'атын'  аняпэлякыт,1,direct,1,1,1,2,1,1764,AVP,
K02,2,45,10,clean-2-1-l.png,old,1,m,n,2,1,2 1,0,0.40,Два дедушки чистят пальто ,Апапонак  кучистиньн'ынинэв'  пальтов',1,direct,0,3,0,3,0,2328,AVP,
K02,2,46,11,feed-1-1-r.png,old,0,f,m,1,1,1 1,1,0.40,Бабушка кормит дедушку,Аняпэляка  кунэвы'йэньн'ынин апапэль,1,direct,1,1,1,1,1,1884,AVP,
K02,2,47,12,water-2-2-r.png,child,1,f,n,2,2,2 2,0,0.40,Две девочки поливают два цветка ,Н'авык'к'алюта нэкун..  нэкумимлын'нынэв'  в'ытв'ыто,1,inverse,1,3,0,3,0,1404,AVP,
K02,2,48,13,wake-2-1-l.png,adult,1,m,f,2,1,2 1,1,0.40,Два мужчины будят женщину ,...Эньпичэ куныкъев'н'ынин нэв... н'эвыткэт,1,direct,0,1,1,1,1,2848,AVP,
K02,2,49,14,plant-1-2-l.png,adult,0,m,n,1,2,1 2,0,0.40,Мужчина сажает два дерева ,ээ.. г'олята  контываньн'ынэн  в'ытв'ыто,1,direct,1,1,1,3,0,3582,AVP,
K02,2,50,15,makelaugh-2-2-r.png,old,1,m,f,2,2,2 2,1,0.40,Два дедушки смешат двух бабушек,ээ.. Апапэляко наконачачгав'н'ынав' н'ав... н'авычӈо,1,inverse,1,3,0,3,0,6014,AVP,
K02,2,51,16,boil-1-1-r.png,adult,0,f,n,1,1,1 1,0,0.40,Женщина варит курицу,Н'эвыткэт  копаньн'ынэн  курицав',1,direct,1,1,1,3,0,1722,AVP,
K02,2,52,17,teach-1-2-l.png,adult,0,m,f,1,2,1 2,1,0.40,Мужчина учит двух женщин ,"Эньпич..  кунгыюлэв'н,ынин  ӈавык'к'алю",1,direct,1,1,1,3,0,2429,AVP,
K02,2,53,18,hang-2-1-l.png,old,1,m,n,2,1,2 1,0,0.40,Два дедушки вешают картину,Апапэляка нэк.. нэ.. нэкутэйкын'ын  портрет,1,inverse,1,1,1,1,1,2258,AVP,
K02,2,54,19,dress-1-1-r.png,old,0,m,f,1,1,1 1,1,0.40,Дедушка одевает бабушку,Апапэляка ко.. ко.. конай.. кунэй.. пальтон куе.. куе.. куенэйпэньн'ын аняпэляк,1,direct,1,1,1,1,1,1817,A[V]PVX,подаёт пальто бабушкам
K02,2,56,21,cut_hair-2-1-l.png,child,1,f,m,2,1,2 1,1,0.40,Две девочки стригут мальчика,Н'авык'к'алюта  нэкучвиньн'нынэв'.. кычв'ию к'айыкмэн'ын',1,inverse,1,3,0,1,1,2318,AVPX,волосы мальчику (м в дательном)
K02,2,58,23,wash-2-2-r.png,old,1,m,f,2,2,2 2,1,0.40,Два дедушки моют двух бабушек,Апапэляка кун.. ко.. кунмытн'ынин н'авычӈо,1,direct,0,1,0,3,0,3658,AVP,
K02,2,59,24,saw-1-1-r.png,adult,0,m,n,1,1,1 1,0,0.40,Мужчина пилит бревно,Г'олята кучгынинэв'  утту,1,direct,1,3,0,1,1,1761,AVP,утту - мн
K02,2,60,25,shoot-1-2-l.png,child,0,f,m,1,2,1 2,1,0.40,Девочка стреляет в двух мальчиков ,Н'авык'к'алюта  койечвалан'... куйичвэтын'  к'айыкмин'ык,1,direct,1,1,1,1,0,1664,AVP,с мальчиком
K02,2,61,26,open-2-1-l.png,old,1,f,n,2,1,2 1,0,0.40,Две бабушки открывают дверь,Аняпэляка  куе..куенв'эн'эньн'ынин   тыллытыл,1,direct,0,1,1,1,1,1843,AVP,
K02,2,62,27,treat-1-1-r.png,adult,0,f,m,1,1,1 1,1,0.40,Женщина лечит мужчину ,Г'оляпэль  кутг'ылын' н'авычӈэ  куе.. куенмэлэв'н'ынин,1,direct,1,1,1,NA,NA,1939,AXPV,
K02,2,63,28,throw-2-2-r.png,child,1,f,n,2,2,2 2,0,0.40,Две девочки бросают два мяча,Н'авык'к'алю.. н'авык'к'алю койечвалан' к'аплык,1,intransitive,0,3,0,3,0,1463,AVP,
K02,2,64,29,scold-2-1-l.png,child,1,m,f,2,1,2 1,1,0.40,Два мальчика ругают девочку,К'айыкмин'а накокытг'айн'ан'ын  н'авык'к'алю,1,inverse,1,1,1,1,1,1514,AVP,
K02,2,66,31,hit-2-2-r.png,child,1,m,f,2,2,2 2,1,0.40,Два мальчика бьют двух девочек,К'айыкмин'у.. котан.. котаг'...котан'йыкчын'лан'  н'авык'к'алю,1,intransitive,0,3,0,1,0,2426,AVP,
K02,2,67,32,paint-1-1-r.png,adult,0,m,n,1,1,1 1,0,0.40,Мальчик красит доску,К'ымин'а  кокрасканьн'ынэн  доска,1,direct,1,1,1,1,1,2108,AVP,
K03,1,4,1,call-1-1-r.png,old,0,f,m,1,1,1 1,1,0.50,Бабушка зовёт дедушку,Чачамдынак  кыг'эйн'эв'н'ынин  ынпыӄлавол ,1,direct,1,1,1,1,1,2237,AVP,
K03,1,5,2,break-2-2-r.png,child,1,m,n,2,2,2 2,0,0.50,Два мальчика ломают два домика,К'адыкмин'ыдык  ганчимав'линав'  дядяв',1,past,NA,3,0,3,0,3392,AVP,
K03,1,6,3,feed-1-2-l.png,old,0,m,f,1,2,1 2,1,0.50,Дедушка кормит двух бабушек,Ынпыӄлавола  кунэв'ыденьн'ынин  чачамдыт,1,direct,1,1,1,2,1,3479,AVP,
K03,1,7,4,eat-2-1-l.png,adult,1,f,n,2,1,2 1,0,0.50,Две женщины едят одно яблоко,Навытк'атпиляк'а нэкугитэн'ын яблоко,1,inverse,1,1,1,1,1,2511,AVP,смотрят
K03,1,8,5,wake-2-2-r.png,adult,1,f,m,2,2,2 2,1,0.50,Две женщины будят двух мужчин,аа.. Эльг'адык  нэкуныг'э.. нэкуныкдев'н'ынэт  г’удемтэв’илг’ыт,1,inverse,1,2,1,2,1,2859,AVP,
K03,1,9,6,pick-1-1-r.png,child,0,m,n,1,1,1 1,0,0.50,Мальчик срывает цветок,К'адыкмин'а  лыг'унин  в'ытв'ытпиль,1,direct,1,1,1,1,1,1615,AVP,увидел
K03,1,10,7,makelaugh-2-1-l.png,old,1,f,m,2,1,2 1,1,0.50,Две бабушки смешат дедушку,.. Чачамдыдык  накотак'дын'дын'ын  ынпыӄлавол,1,inverse,1,1,1,1,1,4121,AVP,
K03,1,11,8,carry-1-2-l.png,adult,0,f,n,1,2,1 2,0,0.50,Женщина несёт два ведра,Н'авытк'атпиляка  кунын'нин  аймыёчгын,1,direct,1,1,1,1,0,2685,AVP,
K03,1,12,9,teach-1-1-r.png,adult,0,f,m,1,1,1 1,1,0.50,Женщина учит мужчину,"так, а это?... Эльг'ата  конв'аняваньн'ынэн г’удемтэв’илг’ын",1,direct,1,1,1,1,1,6268,AVP,беседует
K03,1,13,10,open-2-2-r.png,old,1,m,n,2,2,2 2,0,0.50,Двое дедушек открывают две двери,Г’удемтэв’илг’э  нэкунв'эн'эньн'ынэт  тыллыт,1,inverse,1,2,1,2,1,2520,AVP,
K03,1,14,11,dress-1-2-l.png,old,0,f,m,1,2,1 2,1,0.50,Бабушка одевает двух дедушек,ааа Чачамдынак  кунэчг'эпав'н'ынат  г’удемтэв’илг’ыт... так,1,direct,1,2,0,2,1,3123,AVP,
K03,1,15,12,throw-2-1-l.png,child,1,m,n,2,1,2 1,0,0.50,Два мальчика бросают мяч,"К'адыкмин'ыт кок,аплыткон'э",1,incorporation,NA,NA,NA,NA,NA,1952,AV,
K03,1,16,13,cut_hair-2-2-r.png,child,1,m,f,2,2,2 2,1,0.50,Два мальчика стригут двух девочек,К'адыкмин'а накопаен'нат навыткатпиляк'ыт,1,inverse,1,2,1,2,1,1714,AVP,
K03,1,17,14,cover-1-1-r.png,adult,0,f,n,1,1,1 1,0,0.50,Женщина накрывает один цветок,Н'авытк'атпиляк'а  кудимлытг'ын'ынин  митг'алкыл,1,direct,1,1,1,1,1,4668,AVP,
K03,1,18,15,wash-2-1-l.png,old,1,f,m,2,1,2 1,1,0.50,Две бабушки моют одного дедушку,Чачамдыдык  нэкилгытэв'н'ын  ынпыӄлавол,1,inverse,1,1,1,1,1,2592,AVP,
K03,1,19,16,paint-1-2-l.png,child,0,f,n,1,2,1 2,0,0.50,Девочка красит две доски,Н'авыткатпэляк'а кукрасиньн'ынин уттыт,1,direct,1,1,1,2,1,3612,AVP,
K03,1,20,17,give_water-1-1-r.png,adult,0,m,f,1,1,1 1,1,0.50,Мужчина поит женщину,Г’удемтэв’илг’э  кунэникв'ичев'н'ынин  эльг'а,1,direct,1,1,1,1,1,2857,AVP,
K03,1,21,18,clean-2-2-r.png,old,1,f,n,2,2,2 2,0,0.50,Две бабушки чистят два пальто,"Чачамдыдык надян,айкытваньн'ынат ичг'ыт",1,inverse,1,2,1,2,1,2996,AVP,
K03,1,22,19,push-1-2-l.png,child,0,m,f,1,2,1 2,1,0.50,Мальчик толкает двух девочек,"а, дальше? Н'авытк'атпэляк'ыт.. н'авытк'атпиляк'а димгымгу нэкулн'ынин к'айыкмин'ын",1,inverse,0,NA,NA,NA,NA,5804,AXVP,девочка боится мальчика
K03,1,23,20,water-2-1-l.png,child,1,m,n,2,1,2 1,0,0.50,Два мальчика поливают один цветок,К'адыкмин'а  нэкимлытг'эньн'ын  митг'алкыл,1,inverse,1,1,1,1,1,2358,AVP,
K03,1,24,21,pour-2-2-r.png,adult,1,m,f,2,2,2 2,1,0.50,Двое мужчин обливают двух женщин,Г’удемтэв’илг’э  нымлытг'ынат  эльг'ат,1,inverse,1,2,1,2,1,3021,AVP,
K03,1,25,22,plant-1-1-r.png,adult,0,f,n,1,1,1 1,0,0.50,Женщина сажает одно дерево,Эльг'ата  кучам.. кучан'мичг'ын'нин уттив'...  ой... [смех] уттыпиль,1,direct,1,1,1,1,1,4085,AVPP,"""делает"""
K03,1,26,23,tie-2-1-l.png,child,1,m,f,2,1,2 1,1,0.50,Два мальчика связывают девочку,К'адыкмин'а накултын'  н'авыткатпиль,1,inverse,1,1,1,1,1,3088,AVP,
K03,1,27,24,boil-1-2-l.png,old,0,f,n,1,2,1 2,0,0.50,Бабушка варит две курицы,Чачамдя  копаньн'ынэн  курицат,1,direct,1,1,1,2,1,3205,AVP,не договорила слог в глаголе
K03,1,28,25,shoot-1-1-r.png,child,0,m,f,2,1,2 1,1,0.50,Мальчик стреляет в девочку,К'адыкмин'а  диннин  навытк'атпиль,1,past,NA,1,1,1,1,1909,AVP,прошедшее 1
K03,1,29,26,hang-2-2-r.png,old,1,f,n,2,2,2 2,0,0.50,Две бабушки вешают две картины,а..  Чачамдыдык  наконнёпаньн'ынат  картинат,1,inverse,1,2,1,2,1,3872,AVP,
K03,1,30,27,treat-1-2-l.png,adult,0,m,f,1,2,1 2,1,0.50,Мужчина лечит двух женщин ,Г’удемтэв’илг’э  кунмэлэв'н'ынин  навытк'атпиляк'ы[т],1,direct,1,1,1,2,1,2384,AVP,
K03,1,31,28,pull-2-1-l.png,child,1,m,n,2,1,2 1,0,0.50,Два мальчика везут санки,К'адыкмин'а  накуллэн'ын  уетик,1,inverse,1,1,1,1,1,2747,AVP,
K03,1,32,29,scold-2-2-r.png,child,1,f,m,2,2,2 2,1,0.50,Две девочки ругают двух мальчиков,Н'авытк'атпиляк'а накокытг'айн'ан'нат  к'адыкмин'ы[т?],1,inverse,1,2,1,2,1,2232,AVP,
K03,1,33,30,burn-1-1-r.png,old,0,m,n,1,1,1 1,0,0.50,Дедушка сжигает книгу,Ынпыӄлавола ааа кункэнгэв'н'ынин каликал,1,direct,1,1,1,1,1,3065,AVP,
K03,1,34,31,hit-2-1-l.png,child,1,f,m,2,1,2 1,1,0.50,Две девочки бьют мальчика,Н'авытк'атпиляк'а  накойкыплын'ын к'адыкмин'ын,1,inverse,1,1,1,1,1,2290,AVP,
K03,1,35,32,saw-1-2-l.png,old,0,m,n,1,2,1 2,0,0.50,Дедушка пилит два бревна,"Ынпыӄлавола  купилят...купиляткун,нин  уттыт",1,direct,1,1,1,2,1,2954,AVP,
K03,1,36,1,give_water-2-1-l.png,adult,1,f,m,2,1,2 1,1,0.50,Две женщины поят мужчину ,"и что, опять говорить? Эльг'айык нэкуникв'иченьн'ынин г’удемтэв’илг’ын",1,inverse,1,1,1,1,1,5903,AVP,
K03,1,37,2,break-1-2-l.png,child,0,f,n,1,2,1 2,0,0.50,Девочка ломает два домика,Н'авытк'атпиляк'а дынчимав'нин  яяпиль... яяпэляк'ыт,1,direct,1,1,1,2,1,1208,AVP,
K03,1,38,3,push-2-2-r.png,child,1,f,m,2,2,2 2,1,0.50,Две девочки толкают двух мальчиков,К'адыкмин'а  димгымгу навыткатпиляк'ыт,1,past,NA,NA,NA,2,1,3937,AXP,боятся; без вспомогательного глагола
K03,1,39,4,eat-1-1-r.png,adult,0,m,n,1,1,1 1,0,0.50,Мужчина ест яблоко,Г’удемтэв’илг’э  кунун'нин  яблок,1,direct,1,1,1,1,1,2662,AVP,
K03,1,40,5,pour-1-2-l.png,adult,0,f,m,1,2,1 2,1,0.50,Женщина обливает двух мужчин,Эльг'ата кимлытг'аньн'ынин г’удемтэв’илг’ыт,1,direct,1,1,1,2,1,2227,AVP,
K03,1,41,6,pick-2-1-l.png,child,1,f,n,2,1,2 1,0,0.50,Две девочки срывают один цветок,Н'авытк'атпиляк'а  нэлэг'ун  в'ытв'ытпиль,1,inverse,1,NA,NA,1,1,1678,AVP,нашли
K03,1,42,7,tie-1-1-r.png,child,0,f,m,1,1,1 1,1,0.50,Девочка связывает мальчика,Н'авытк'атпиляк'а кылтынин  к'адыкмин'ын,1,direct,1,1,1,1,1,1515,AVP,
K03,1,43,8,carry-2-2-r.png,adult,1,m,n,2,2,2 2,0,0.50,Двое мужчин несут два ведра,Г’удемтэв’илг’э накунын'нат.. эмлын'таёчгыт,1,inverse,1,2,1,2,1,1988,AVP,
K03,1,44,9,call-2-1-l.png,old,1,m,f,2,1,2 1,1,0.50,Двое дедушек зовут бабушку,Г’удемтэв’илг’э  нэкуг'эйн'эв'н'ын  чачамэ,1,inverse,1,1,1,1,1,2126,AVP,
K03,1,45,10,clean-1-2-l.png,old,0,m,n,2,2,2 2,0,0.50,Дедушка чистит два пальто,"Ынпыӄлавола ян,айк'ытв'аньн'ынэн ичг'ыт",1,past,NA,1,0,2,1,1414,AVP,будущее
K03,1,46,11,feed-2-2-r.png,old,1,f,m,2,2,2 2,1,0.50,Две бабушки кормят двух дедушек,Чачамдыдык неде... неде.. неде.. не. де.. Господи... неку.. некунэв'ыденьн'ынэт ынпыӄлаволтэ,1,inverse,1,2,1,2,1,2209,AVXVP,
K03,1,47,12,water-1-1-r.png,child,0,f,n,1,1,1 1,0,0.50,Девочка поливает цветок,Н'авытк'атпиляк'а кимлытг'аньн'ынин  в'ытв'ытпэль,1,direct,1,1,1,1,1,1435,AVP,
K03,1,48,13,wake-1-2-l.png,adult,0,m,f,1,2,1 2,1,0.50,Мужчина будит двух женщин,Г’удемтэв’илг'э  куныкдев'н'ынин  эльг'ат,1,direct,1,1,1,2,1,2323,AVP,
K03,1,49,14,plant-2-1-l.png,adult,1,m,n,2,1,2 1,0,0.50,Двое мужчин сажают дерево,Г’удемтэв’илг'э  накучан'мичн'ын'ын уттыпиль,1,inverse,1,1,1,1,1,1345,AVP,
K03,1,50,15,makelaugh-1-1-r.png,old,0,m,f,1,1,1 1,1,0.50,Дедушка смешит бабушку,Чачамдя ачачго кулн'ын'нин ынпыӄлавол,1,direct,1,1,1,1,1,2620,AVP,смеется над со вспомогательным
K03,1,51,16,boil-2-2-r.png,adult,1,f,n,2,2,2 2,0,0.50,Две женщины варят две курицы,Эльг'ат... эльг'ата  накукукэйвын'нэт  курицат,1,inverse,1,2,1,2,1,1963,AVP,для курицы :)
K03,1,52,17,teach-2-1-l.png,adult,1,m,f,2,1,2 1,1,0.50,Двое мужчин учат одну женщину,Г’удемтэв’илг'э  э.. наконв'анявав'н'ын  эльг'а,1,inverse,1,1,1,1,1,1939,AVP,беседуют
K03,1,53,18,hang-1-2-l.png,old,0,m,n,1,2,1 2,0,0.50,Дедушка вешает две картины,Ынпыӄлавола  яннёпаньн'ынэн  картинат,1,direct,1,1,1,2,1,2254,AVP,будущее
K03,1,54,19,dress-2-2-r.png,old,1,m,f,2,2,2 2,1,0.50,Два дедушки одевают двух бабушек,Г’удемтэв’илг’адик ... на.. нэкув'иненьн'ынэт  чачамдыт,1,inverse,1,2,1,2,1,2171,AVP,помогают
K03,1,55,20,pull-1-1-r.png,child,1,f,n,1,1,1 1,0,0.50,Девочка везёт санки,Н'авытк'атпиляк'а кулэйв'ын'нин уетик,1,direct,1,1,1,1,1,1291,AVP,
K03,1,56,21,cut_hair-1-2-l.png,child,0,f,m,1,2,1 2,1,0.50,Девочка стрижет двух мальчиков,Н'авытк'атпиляк'а копаден'нэн к'адыкминыт,1,direct,1,1,1,2,1,2002,AVP,
K03,1,57,22,burn-2-1-l.png,old,1,f,n,2,2,2 2,0,0.50,Две бабушки сжигают книгу,"Чачамдыдык нэкункэнгэв'н,ынэт каликал",1,inverse,1,2,1,1,0,2738,AVP,
K03,1,58,23,wash-1-1-r.png,old,0,m,f,1,1,1 1,1,0.50,Дедушка моет бабушку,Ынпыӄлавола килгытэв'н'ынин чачамэ,1,direct,1,1,1,1,1,1637,AVP,
K03,1,59,24,saw-2-2-r.png,adult,1,m,n,2,2,2 2,0,0.50,Два мужчины пилят два бревна,"Г’удемтэв’илг’э  накупиляткун,нат  уттыт",1,inverse,1,2,1,2,1,2382,AVP,
K03,1,60,25,shoot-2-1-l.png,child,1,f,m,2,1,2 1,1,0.50,Две девочки стреляют в мальчика,Навытк'атпиляк'а нэдитын к'адыкмин'ын,1,inverse,1,1,1,1,1,2566,AVP,прошдшее 1
K03,1,61,26,open-1-2-l.png,old,0,f,n,1,2,1 2,0,0.50,Бабушка открывает две двери ,Чачамдя кунв'эн'эньн'ынин тыллыт,1,direct,1,1,1,2,1,2008,AVP,
K03,1,62,27,treat-2-2-r.png,adult,1,f,m,2,2,2 2,1,0.50,Две женщины лечат двух мужчин,так! Эльг'адык нэкунмэлэв'н'ынэт  г’уемтэв’ил[г'ыт],1,inverse,1,2,1,2,1,3587,AVP,
K03,1,63,28,throw-1-1-r.png,child,0,f,n,1,1,1 1,0,0.50,Девочка бросает мяч,"Н'авытк'атпиль  кок,ааплы[ткон']",1,incorporation,NA,NA,NA,NA,NA,1477,AV,
K03,1,64,29,scold-1-2-l.png,child,0,m,f,1,2,1 2,1,0.50,Мальчик ругает двух девочек,К'адыкмин'ын..  к'адыкмин'а кокытг'айн'ан'нэн навытк'атпиляк'ыт,1,direct,1,1,1,2,1,1900,AVP,
K03,1,65,30,cover-2-1-l.png,adult,1,m,n,2,1,2 1,0,0.50,Два мужчины накрывают цветок ,так! Г’удемтэв’илг’э  нэдимлытг'эньн'ын  в'ытв'ытпиль,1,inverse,1,1,1,1,1,4612,AVP,будущее
K03,1,66,31,hit-1-1-r.png,child,0,m,f,1,1,1 1,1,0.50,Мальчик бьет девочку,К'адыкмин'а койкыплын'нэн н'авытк'ат[пиль],1,direct,1,1,1,1,1,1561,AVP,
K03,1,67,32,paint-2-2-r.png,adult,1,m,n,2,2,2 2,0,0.50,Два мальчика красят две доски ,"К'адыкмин'ы.. к'адыкмин'а  накукрасиньн,ынат  уттит",1,inverse,1,2,1,2,1,1548,AVP,
K03,2,4,1,call-2-2-r.png,old,1,f,m,2,2,2 2,1,0.50,Две бабушки зовут двух дедушек,Эльг'ата нэкуг'эйн'эв'н'ынэт ынпыӄлаволтэ,1,inverse,1,2,1,2,1,3282,AVP,
K03,2,5,2,break-1-1-r.png,child,0,m,n,1,1,1 1,0,0.50,Мальчик ломает домик,К'адыкмин'а динчимав'нин дядяпэль,1,direct,1,1,1,1,1,2134,AVP,
K03,2,6,3,feed-2-1-l.png,old,1,m,f,2,1,2 1,1,0.50,Два дедушки кормят бабушку,Ынпыӄлавола нэкунэв'ыденьн'ын чачамэ,1,inverse,1,1,1,1,1,2723,AVP,
K03,2,7,4,eat-1-2-l.png,adult,0,f,n,1,2,1 2,0,0.50,Женщина ест два яблока,Н'авытк'атпэляк'а  кунун'нин  н'ыччек' яблокат,1,direct,1,1,1,2,1,2901,AVP,
K03,2,8,5,wake-1-1-r.png,adult,0,f,m,1,1,1 1,1,0.50,Женщина будит мужчину,Эльг'ата  куныкдев'н'ынин  г’удемтэв’илг’ын,1,direct,1,1,1,1,1,2248,AVP,
K03,2,9,6,pick-2-2-r.png,child,1,m,n,2,2,2 2,0,0.50,Два мальчика срывают два цветка,К'адыкмин'а нэлэг'унэт митг'алк'ыт,1,inverse,1,2,1,2,1,1787,AVP,
K03,2,10,7,makelaugh-1-2-l.png,old,0,f,m,1,2,1 2,1,0.50,Бабушка смешит двух дедушек,Чачамдя коначачгав'н'ынэн  ынпыӄлаволтэ,1,direct,1,1,1,2,1,2917,AVP,
K03,2,11,8,carry-2-1-l.png,adult,1,f,n,2,1,2 1,0,0.50,Две женщины несут ведро,Н'авытк'атпэляк'а  нэкунын'ын мэмлыёчгын,1,inverse,1,1,1,1,1,2143,AVP,
K03,2,12,9,teach-2-2-r.png,adult,1,f,m,2,2,2 2,1,0.50,Две женщины учат двух мужчин,Эльг'ата  наконгв'аняв'н'ынат г’удемтэв’илг’ыт,1,inverse,1,2,1,2,1,4072,AVP,
K03,2,13,10,open-1-1-r.png,old,0,m,n,1,1,1 1,0,0.50,Дедушка открывает дверь,Ынпыӄлавола  кунв'эн'эньн'ынин   тыллытыл,1,direct,1,1,1,1,1,2141,AVP,
K03,2,14,11,dress-2-1-l.png,old,1,f,m,2,1,2 1,1,0.50,Две бабушки одевают дедушку,Чачамдыдык   наконэчг'эпав'н'ын   ынпыӄлавол,1,inverse,1,1,1,1,1,2500,AVP,
K03,2,15,12,throw-1-2-l.png,child,0,m,n,1,2,1 2,0,0.50,Мальчик бросает два мяча,К'адыкмин'ын кук'аплыткун',1,incorporation,NA,NA,NA,NA,NA,2196,AV,
K03,2,16,13,cut_hair-1-1-r.png,child,0,m,f,1,1,1 1,1,0.50,Мальчик стрижет девочку,К'адыкмин'а  копаен'эн  н'авытк'атпиль,1,direct,1,1,1,1,1,1832,AVP,
K03,2,17,14,cover-2-2-r.png,adult,1,f,n,2,2,2 2,0,0.50,Две женщины накрывают два цветка,"аа.. Н'авытк'атпэляк'а  нэкимлытг'ын,нэт  в'ытв'ыттэ",1,inverse,1,2,1,2,1,3336,AVP,
K03,2,18,15,wash-1-2-l.png,old,0,f,m,1,2,1 2,1,0.50,Бабушка моет двух дедушек,Чачамдя  кылгытэв'н'ынэн  ынпыӄлаволтэ,1,direct,1,1,1,2,1,1913,AVP,
K03,2,19,16,paint-2-1-l.png,child,1,f,n,2,1,2 1,0,0.50,Две девочки красят доску,"Н'авыткатпэляк'ыт кукрасив'ын,ны... Н'авытк'атпэляк'а накокрасиньн,ын тыллытыл или уттыпиль",1,direct; inverse,1,1,1,1,1,2036,AVAVPXP,
K03,2,20,17,give_water-2-2-r.png,adult,1,m,f,2,2,2 2,1,0.50,Два мужчины поят двух женщин,Г’удемтэв’илг’э  нэкуникв'ичэньн'ынэт  эльг'ат,1,inverse,1,2,1,2,1,3765,AVP,
K03,2,21,18,clean-1-1-r.png,old,0,f,n,1,1,1 1,0,0.50,Бабушка чистит пальто,"Чачамдынак кун,айк'ытв'аньн'ынин  ичг'ын",1,direct,1,1,1,1,1,2514,AVP,
K03,2,22,19,push-2-1-l.png,child,1,m,f,2,1,2 1,1,0.50,Два мальчика толкают девочку,Н'авытк'атпэляк'а димгымгу кулн'ын'ин к'адыкмин'ыт,1,direct,0,1,1,2,0,4749,AXVP,боится
K03,2,23,20,water-1-2-l.png,child,0,m,n,1,2,1 2,0,0.50,Мальчик поливает два цветка,К'адыкмин'а  кимлытг'аньн'ынин  в'ытв'ыттэ,1,direct,1,1,1,2,1,3002,AVP,
K03,2,24,21,pour-1-1-r.png,adult,0,m,f,1,1,1 1,1,0.50,Мужчина обливает женщину,Г’удемтэв’илг’э  имлытг'ан'ин  эльг'а,1,direct,1,1,1,1,1,2513,AVP,прошедшее 1
K03,2,25,22,plant-2-2-r.png,adult,1,f,n,2,2,2 2,0,0.50,Две женщины сажают два дерева,Эльг'адык  накучан'мичг'ин'нат в'ытв'ыттэ,1,inverse,1,2,1,2,1,3143,AVP,
K03,2,26,23,tie-1-2-l.png,child,0,m,f,1,2,1 2,1,0.50,Мальчик связывает двух девочек,К'адыкмин'а   кылтынин  навытк'атпиляк'ыт,1,direct,1,1,1,2,1,1925,AVP,
K03,2,27,24,boil-2-1-l.png,old,1,f,n,2,1,2 1,0,0.50,Две бабушки варят курицу,Чачамдыдык  накопаньн'ын  курицан,1,inverse,1,1,1,1,1,2447,AVP,
K03,2,28,25,shoot-2-2-r.png,child,1,m,f,2,2,2 2,1,0.50,Два мальчика стреляют в двух девочек ,К'адыкмин'а  нэдиннэт  навытк'атпиляк'ыт,1,inverse,1,2,1,2,1,1841,AVP,не презенс
K03,2,29,26,hang-1-1-r.png,old,0,f,n,1,1,1 1,0,0.50,Бабушка вешает картину,Чачамдынак  кодяннёпаньн'ынэн  картина,1,direct,1,1,1,1,1,2498,AVP,желательная форма
K03,2,30,27,treat-2-1-l.png,adult,1,m,f,2,1,2 1,1,0.50,Два мужчины лечат женщину ,Г’удемтэв’илг’э  нэкунмэлэв'н'ын  эльг'а,1,inverse,1,1,1,1,1,3309,AVP,
K03,2,31,28,pull-1-2-l.png,child,0,m,n,1,2,1 2,0,0.50,Мальчик везёт двое санок,К'адыкмин'а  кудялекон'нэн удетик,1,direct,1,1,1,1,0,1964,AVP,катит
K03,2,32,29,scold-1-1-r.png,child,0,f,m,1,1,1 1,1,0.50,Девочка ругает мальчика ,Н'авытк'атпиляк'а  кокытг'айн'ан'нэн  к'адыкмин'ын,1,direct,1,1,1,1,1,2250,AVP,
K03,2,33,30,burn-2-2-r.png,old,1,m,n,2,2,2 2,0,0.50,Два дедушки сжигают две книги ,Ынпыӄлаволыдык  нэмилгэнэт  каликалыт,1,inverse,1,2,1,2,1,3547,AVP,
K03,2,34,31,hit-1-2-l.png,child,0,f,m,1,2,1 2,1,0.50,Девочка бьет двух мальчиков,... Н'авытк'атпиляк'а койкыплылэнат к'адыкмин'ыт,1,direct,1,2,0,2,1,3937,AVP,"приставка наст, суффикс прош"
K03,2,35,32,saw-2-1-l.png,old,1,m,n,2,1,2 1,0,0.50,Два дедушки пилят бревно,Ынпыӄлаволтэ  купиляткан'и,1,intransitive,NA,NA,NA,NA,NA,1950,AV,
K03,2,36,1,give_water-1-2-l.png,adult,0,f,m,1,2,1 2,1,0.50,Женщина поит двух мужчин,Н'авытк'атпиляк'а  куникв'ичев'н'ынин  г’удемтэв’илг’ыт,1,direct,1,1,1,2,1,2500,AVP,
K03,2,37,2,break-2-1-l.png,child,1,f,n,2,1,2 1,0,0.50,Две девочки ломают домик,Н'авытк'атпиляк'а нанчимав'ын  дядяпэль,1,inverse,1,1,1,1,1,1697,AVP,
K03,2,38,3,push-1-1-r.png,child,0,f,m,1,1,1 1,1,0.50,Девочка толкает мальчика,К'айыкмин'а  димгымгу кулн'ын'нин н'авытк'атпиль,1,direct,1,1,1,1,1,2085,AXVP,боится
K03,2,39,4,eat-2-2-r.png,adult,1,m,n,2,2,2 2,0,0.50,Два мужчины едят два яблока,Г’удемтэв’илг’э  нэнунэт  яблокат,1,inverse,1,2,1,2,1,2171,AVP,
K03,2,40,5,pour-2-1-l.png,adult,1,f,m,2,1,2 1,1,0.50,Две женщины обливают мужчину ,Эльг'ата нэмлытг'ын г'удемтэв’илг’ын,1,inverse,1,1,1,1,1,1635,AVP,
K03,2,41,6,pick-1-2-l.png,child,0,f,n,1,2,1 2,0,0.50,Девочка срывает два цветка,Н'авытк'атпиляк'а  лыг'унин  в'ытв'ыттэ,1,direct,1,1,1,2,1,1438,AVP,
K03,2,42,7,tie-2-2-r.png,child,1,f,m,2,2,2 2,1,0.50,Две девочки связывают двух мальчиков,Н'авытк'атпиляк'ыдык  накылтынат  к'адыкмин'ыт,1,inverse,1,2,1,2,1,1587,AVP,
K03,2,43,8,carry-1-1-r.png,adult,0,m,n,1,1,1 1,0,0.50,Мужчина несёт ведро,Г’удемтэв’илг’э  куннын'нин  мэмлыёчгын,1,direct,1,1,1,1,1,1402,AVP,держит
K03,2,44,9,call-1-2-l.png,old,0,m,f,1,2,1 2,1,0.50,Дедушка зовет двух бабушек ,Ынпыӄлавола кэг'эйн'эв'н'ынин чачамдыт,1,direct,1,1,1,2,1,1860,AVP,
K03,2,45,10,clean-2-1-l.png,old,1,m,n,2,1,2 1,0,0.50,Два дедушки чистят пальто ,Ынпыӄлавола  надян'айк'ытв'ан'ын  ичг'ын,1,inverse,1,1,1,1,1,1513,AVP,будут чистить
K03,2,46,11,feed-1-1-r.png,old,0,f,m,1,1,1 1,1,0.50,Бабушка кормит дедушку,Чачамдя  кунэв'ыденьн'ынин ынпыӄлавол,1,direct,1,1,1,1,1,1323,AVP,
K03,2,47,12,water-2-2-r.png,child,1,f,n,2,2,2 2,0,0.50,Две девочки поливают два цветка ,Н'авытк'атпэляк'адык  накимлытг'ын'нат  в... в'ытв'ыттэ,1,inverse,1,2,1,2,1,1423,AVP,
K03,2,48,13,wake-2-1-l.png,adult,1,m,f,2,1,2 1,1,0.50,Два мужчины будят женщину ,Г’удемтэв’илг’э  нэкуныкдев'н'ын  эльг'а,1,inverse,1,1,1,1,1,2504,AVP,
K03,2,49,14,plant-1-2-l.png,adult,0,m,n,1,2,1 2,0,0.50,Мужчина сажает два дерева ,Г’удемтэв’илг’э  кучан'микчын'нин уттыт,1,direct,1,1,1,2,1,2650,AVP,
K03,2,50,15,makelaugh-2-2-r.png,old,1,m,f,2,2,2 2,1,0.50,Два дедушки смешат двух бабушек,Чачамдыдык ачачго нэкулн'ын'нэт ынпык'лаволтэ,1,inverse,1,2,1,2,1,2516,AXVP,смеется над
K03,2,51,16,boil-1-1-r.png,adult,0,f,n,1,1,1 1,0,0.50,Женщина варит курицу,Эльг'анак  копаньн'ынэн  курица,1,direct,1,1,1,1,1,2054,AVP,
K03,2,52,17,teach-1-2-l.png,adult,0,m,f,1,2,1 2,1,0.50,Мужчина учит двух женщин ,Ынпыӄлавола  конв'аняваньн'ынэн эльг'ат,1,direct,1,1,1,2,1,2629,AVP,
K03,2,53,18,hang-2-1-l.png,old,1,m,n,2,1,2 1,0,0.50,Два дедушки вешают картину,Ынпыӄлавола  надяннёпаньн'ын  картина,1,inverse,1,1,1,1,1,1425,AVP,будущее
K03,2,54,19,dress-1-1-r.png,old,0,m,f,1,1,1 1,1,0.50,Дедушка одевает бабушку,Ынпыӄлавола  кунэчг'эпав'н'ынэн  чачамэ,1,direct,1,1,1,1,1,2175,AVP,
K03,2,55,20,pull-2-2-r.png,child,1,f,n,2,2,2 2,0,0.50,Две девочки везут двое санок ,Н'авытк'атпиляк'а нэкунин'нэт удетикит,1,inverse,1,2,1,2,1,2270,AVP,
K03,2,56,21,cut_hair-2-1-l.png,child,1,f,m,2,1,2 1,1,0.50,Две девочки стригут мальчика,Н'авыткатпиляк'ыдык  накопаден'ын  к'адыкмин'ын,1,inverse,1,1,1,1,1,2052,AVP,
K03,2,57,22,burn-1-2-l.png,old,0,f,n,1,2,1 2,0,0.50,Бабушка сжигает две книги,Чачамдя  милгыпнин  каликалыт,1,direct,1,1,1,2,1,2037,AVP,
K03,2,58,23,wash-2-2-r.png,old,1,m,f,2,2,2 2,1,0.50,Два дедушки моют двух бабушек,Ынпыӄлаволыдык наконмытн'ынат  чачамдыт,1,inverse,1,2,1,2,1,1811,AVP,стирают :)
K03,2,59,24,saw-1-1-r.png,adult,0,m,n,1,1,1 1,0,0.50,Мужчина пилит бревно,Г’удемтэв’илг’ын  купиляткун',1,intransitive,NA,NA,NA,NA,NA,1815,AV,
K03,2,60,25,shoot-1-2-l.png,child,0,f,m,1,2,1 2,1,0.50,Девочка стреляет в двух мальчиков ,Н'авытк'атпиляк'а  диннин  к'айыкмин'ыт,1,direct,1,1,1,2,1,1851,AVP,
K03,2,61,26,open-2-1-l.png,old,1,f,n,2,1,2 1,0,0.50,Две бабушки открывают дверь,Чачамдыдык  нэкунв'эн'эньн'ын   тыллытыл,1,inverse,1,1,1,1,1,1687,AVP,
K03,2,62,27,treat-1-1-r.png,adult,0,f,m,1,1,1 1,1,0.50,Женщина лечит мужчину ,Эльг'ата  кунмэлэв'н'ынин  г’удемтэв’илг’ын,1,direct,1,1,1,1,1,1797,AVP,
K03,2,63,28,throw-2-2-r.png,child,1,f,n,2,2,2 2,0,0.50,Две девочки бросают два мяча,"Н'авытк'атпиляк'ыт  кук,аплыткун'и",1,incorporation,NA,NA,NA,NA,NA,1677,AV,
K03,2,64,29,scold-2-1-l.png,child,1,m,f,2,1,2 1,1,0.50,Два мальчика ругают девочку,К'адыкмин'а  накокытг'айн'ан'ын  н'авытк'атпиль,1,inverse,1,1,1,1,1,3306,AVP,
K03,2,65,30,cover-1-2-l.png,adult,0,m,n,1,2,1 2,0,0.50,Мужчина накрывает два цветка ,Г’удемтэв’илг’э  кимлытг'аньн'ынин  в'ытв'ыттэ,1,direct,1,1,1,2,1,2063,AVP,поливает
K03,2,66,31,hit-2-2-r.png,child,1,m,f,2,2,2 2,1,0.50,Два мальчика бьют двух девочек,К'адыкмин'а найкыплынат  н'авытк'атпильтэ,1,inverse,1,2,1,2,1,2418,AVP,
K03,2,67,32,paint-1-1-r.png,adult,0,m,n,1,1,1 1,0,0.50,Мальчик красит доску,"а, ну ладно ... К'адыкмин'а  кукрасиньн,ынин  уттыут",1,direct,1,1,1,1,1,3131,AVP,
K04,1,4,1,call-1-1-r.png,old,0,f,m,1,1,1 1,1,0.30,Бабушка зовёт дедушку,Аняпэля кукумн'аньн'ынин ынпыӄлавол  или кыг'эйн'эв'н'ынин  ынпыӄлавол ,1,direct,1,1,1,1,1,1813,AVPXVP,окликает или зовет
K04,1,5,2,break-2-2-r.png,child,1,m,n,2,2,2 2,0,0.30,Два мальчика ломают два домика,К'айыкмин'ыт куйичвеньни...   или что они делаю? бегут? К'айыкмин'ыйык накунчимав'н'ын уйичвын,1,intransitive; inverse,1,1,0,1,0,5598,AVXAVP,"играют, потом исправляет"
K04,1,6,3,feed-1-2-l.png,old,0,m,f,1,2,1 2,1,0.30,Дедушка кормит двух бабушек,Ынпыӄлавола  кунэв'ыйеньн'ын..нин  ынпыӈэв’,1,direct,1,1,1,3,0,2807,AVP,
K04,1,7,4,eat-2-1-l.png,adult,1,f,n,2,1,2 1,0,0.30,Две женщины едят одно яблоко,Н'авык'к'алюйык нэкугитэн'ын яблок,1,inverse,1,1,1,1,1,3832,AVP,смотрят
K04,1,8,5,wake-2-2-r.png,adult,1,f,m,2,2,2 2,1,0.30,Две женщины будят двух мужчин,"Н'авычӈыйык  нэкуныкйэв,ныт  г'олят",1,inverse,1,2,1,2,1,3555,AVP,
K04,1,9,6,pick-1-1-r.png,child,0,m,n,1,1,1 1,0,0.30,Мальчик срывает цветок,К'айыкмин'а  в'ытв'ыт куепйын'нин,1,direct,1,1,1,1,1,1537,APV,хочет сорвать
K04,1,10,7,makelaugh-2-1-l.png,old,1,f,m,2,1,2 1,1,0.30,Две бабушки смешат дедушку,... че делают?  К'айыкмин'ын ынпыӈэв’пэляк'ыйык наконачачгав'н'ин ,1,inverse,1,1,1,3,0,14741,APV,"""Мальчика старушки смешат"""
K04,1,11,8,carry-1-2-l.png,adult,0,f,n,1,2,1 2,0,0.30,Женщина несёт два ведра,"Н'авык'к'алю.. н'авык'к'алюта  кимтин,нин ведрат",1,direct,1,1,1,2,1,2647,AVP,
K04,1,12,9,teach-1-1-r.png,adult,0,f,m,1,1,1 1,1,0.30,Женщина учит мужчину,Ынпыӄлавол купав'чин'...слушает он?  Н'авычӈа кунгыйивэньн'ынин г'оля,1,direct,1,1,1,1,1,4376,AVXAVP,
K04,1,13,10,open-2-2-r.png,old,1,m,n,2,1,2 1,0,0.30,Двое дедушек открывают две двери,Г’оляйык  нэкунв'эн'эньнин  тыллытыл,1,inverse,1,1,1,3,0,2671,AVP,
K04,1,15,12,throw-2-1-l.png,child,1,m,n,2,1,2 1,0,0.30,Два мальчика бросают мяч,"К'айыкмин'у кок,аплытколан'",1,incorporation,NA,NA,NA,NA,NA,2224,AV,играют в мяч
K04,1,16,13,cut_hair-2-2-r.png,child,1,m,f,2,2,2 2,1,0.30,Два мальчика стригут двух девочек,К'айыкмин'ыйык  накопаен'ын ӈавык'к'алю,1,inverse,1,1,0,1,0,3852,AVP,стригут девочку
K04,1,17,14,cover-1-1-r.png,adult,0,f,n,1,1,1 1,0,0.30,Женщина накрывает один цветок,Н'авык'к'алюта  коятопн'ынэн  в'ытв'ыт,1,direct,1,1,1,1,1,3014,AVP,хочет закрыть
K04,1,18,15,wash-2-1-l.png,old,1,f,m,2,1,2 1,1,0.30,Две бабушки моют одного дедушку,... аняпэляк'а  нако.. накокплёнын или накомытн'ын  ынпыӄлавол наверное,1,inverse,1,1,1,1,1,5345,AVXVPX,оглушает :) или моет
K04,1,19,16,paint-1-2-l.png,child,0,f,n,1,2,1 2,0,0.30,Девочка красит две доски,"Н'авык'к'алюта кэняйкэчен,нэн  доскат",1,direct,1,1,1,2,1,2064,AVP,
K04,1,20,17,give_water-1-1-r.png,adult,0,m,f,1,1,1 1,1,0.30,Мужчина поит женщину,Г’олята  куеникв'иченьн'ынин  ӈавычӈын,1,direct,1,1,1,1,1,3464,AVP,хочет напоить
K04,1,22,19,push-1-2-l.png,child,0,m,f,1,2,1 2,1,0.30,Мальчик толкает двух девочек,"[пытается понять, что происходит, и вспомнить слово] К'айыкмин'а  купынг'ылын'нин ӈавык'к'алют",1,direct,1,1,1,2,1,21331,AVP,
K04,1,23,20,water-2-1-l.png,child,1,m,n,2,1,2 1,0,0.30,Два мальчика поливают один цветок,... К'айыкмин'а  куполиваньн'ынэн в'ытв'ыт или кимлытг'ын'нин,1,direct,0,1,1,1,1,3493,AVPXV,оба слова - поливать
K04,1,24,21,pour-2-2-r.png,adult,1,m,f,2,2,2 2,1,0.30,Двое мужчин обливают двух женщин,Г'оляйык накимлытг'ын'ын  ӈавык'к'алют,1,inverse,1,1,0,2,1,4714,AVP,
K04,1,25,22,plant-1-1-r.png,adult,0,f,n,1,1,1 1,0,0.30,Женщина сажает одно дерево,"Н'авык'к'алюта  че делает? коён,нэн  в'ытв'ыт",1,direct,1,1,1,1,1,2923,AXVP,"""засовывает"""
K04,1,26,23,tie-2-1-l.png,child,1,m,f,2,1,2 1,1,0.30,Два мальчика связывают девочку,К'айыкмин'ыйык  гакыльтыткулин  ӈавык'к'алю,1,past,NA,1,1,1,1,3771,AVP,прошедшее 2
K04,1,27,24,boil-1-2-l.png,old,0,f,n,1,2,1 2,0,0.30,Бабушка варит две курицы,аняпэль кукукэйвын'..  курицан копаньн'ын ,1,intransitive; direct,1,1,1,1,0,2277,AVPV,готовит (непер)... курицу варит
K04,1,28,25,shoot-1-1-r.png,child,0,m,f,2,2,2 2,1,0.30,Мальчик стреляет в девочку,К'айыкмин'а  куйитыткун',1,intransitive,NA,NA,NA,NA,NA,2344,AV,(нин ӈавык'к'алю) - недоговорила
K04,1,29,26,hang-2-2-r.png,old,1,f,n,2,2,2 2,0,0.30,Две бабушки вешают две картины,аняпэляк'а ... наконнёпаньн'ын  картина,1,inverse,1,1,0,1,0,3164,AVP,
K04,1,30,27,treat-1-2-l.png,adult,0,m,f,1,2,1 2,1,0.30,Мужчина лечит двух женщин ,"...Г'олята.. куйылын,ын'нин  лекарство  ӈавычӈын'",1,direct,1,1,1,1,0,4381,AVPX,дает лекарство женщине
K04,1,31,28,pull-2-1-l.png,child,1,m,n,2,1,2 1,0,0.30,Два мальчика везут санки,Н'авы.. к'айыкмин'а уетик накуг'аг'ан'ын ,1,inverse,1,1,1,1,1,1936,AAPV,
K04,1,32,29,scold-2-2-r.png,child,1,f,m,2,2,2 2,1,0.30,Две девочки ругают двух мальчиков,Н'авык'к'алюйык накокытг'айн'ан'ын  к'айыкмин'ыт,1,inverse,1,1,0,2,1,3219,AVP,
K04,1,33,30,burn-1-1-r.png,old,0,m,n,1,1,1 1,0,0.30,Дедушка сжигает книгу,"Г'олята кун'..кэнгэв'н,ынин  книга",1,direct,1,1,1,1,1,3104,AVP,
K04,1,34,31,hit-2-1-l.png,child,1,f,m,2,1,2 1,1,0.30,Две девочки бьют мальчика,Н'авык'к'алюйык накойкыплын'ын к'айыкмин'ын,1,inverse,1,1,1,1,1,2138,AVP,
K04,1,35,32,saw-1-2-l.png,old,0,m,n,1,2,1 2,0,0.30,Дедушка пилит два бревна,Г'оля  кутуттын'ын,1,incorporation,NA,NA,NA,NA,NA,2481,AV,"рубит дрова, инкорпорация"
K04,1,36,1,give_water-2-1-l.png,adult,1,f,m,2,1,2 1,1,0.30,Две женщины поят мужчину ,...Н'авык'к'алюйык нэкун.. нэкинив'ичев'н'ын г'оля,1,inverse,1,1,1,1,1,4784,AVP,
K04,1,37,2,break-1-2-l.png,child,0,f,n,1,2,1 2,0,0.30,Девочка ломает два домика,Н'авык'к'алюта  кунчимав'н'ынин  уйичвинэн',1,direct,1,1,1,NA,NA,3263,AVP,игрушку - одну
K04,1,38,3,push-2-2-r.png,child,1,f,m,2,2,2 2,1,0.30,Две девочки толкают двух мальчиков,Н'авык'к'алю копэннылан' к'айыкмин'ын',1,intransitive,0,3,0,1,0,3163,AVP,девочки нападают на мальчиков (дат.)
K04,1,39,4,eat-1-1-r.png,adult,0,m,n,2,1,2 1,0,0.30,Мужчина ест яблоко,"Г'олята  кугитэн,нин  ывынг'ын",1,direct,0,1,1,1,1,1964,AVP,смотрит
K04,1,40,5,pour-1-2-l.png,adult,0,f,m,1,2,1 2,1,0.30,Женщина обливает двух мужчин,Н'авык'к'алюнак кимлытг'ын'нин г'олят,1,direct,1,1,1,2,1,2519,AVP,
K04,1,41,6,pick-2-1-l.png,child,1,f,n,2,1,2 1,0,0.30,Две девочки срывают один цветок,"Н'авык'к'алюйык в'ытв'ыт.. че делают?  нэкуенк'уньн'ын, накупйын'ын",1,inverse,1,1,1,1,1,2320,APVV,"хотят срывать, срывают"
K04,1,42,7,tie-1-1-r.png,child,0,f,m,1,1,1 1,1,0.30,Девочка связывает мальчика,...разные варианты Н'авык'к'алюта  гакылтылин  к'айыкмин'ын,1,past,NA,1,1,1,1,3226,AVP,прош 2 -- связали
K04,1,43,8,carry-2-2-r.png,adult,1,m,n,2,2,2 2,0,0.30,Двое мужчин несут два ведра,"Г'олята... каймин,э что ли?  Г'оляйык нэ.. накуньнын'нат ведрат",1,inverse,1,2,1,2,1,3789,AAXAVP,
K04,1,44,9,call-2-1-l.png,old,1,m,f,2,1,2 1,1,0.30,Двое дедушек зовут бабушку,Ынпыӄлаволыйык  наку..кумн'аньн'ын  ынпыӈэв',1,inverse,1,1,1,1,1,4255,AVP,одно слово
K04,1,46,11,feed-2-2-r.png,old,1,f,m,2,2,2 2,1,0.30,Две бабушки кормят двух дедушек,"Ынпыӈэвыйык нэкунэв,эньн'ынэт ынпыӄлаволыт",1,inverse,1,2,1,2,1,2914,AVP,
K04,1,47,12,water-1-1-r.png,child,0,f,n,1,1,1 1,0,0.30,Девочка поливает цветок,Н'авык'к'алюнак  кимлытг'ын'нин  в'ытв'ыт,1,direct,1,1,1,1,1,1629,AVP,
K04,1,48,13,wake-1-2-l.png,adult,0,m,f,1,2,1 2,1,0.30,Мужчина будит двух женщин,Г'олята  куныкъев'н'ынин  н'авык'к'алю,1,direct,1,1,1,1,0,2620,AVP,
K04,1,49,14,plant-2-1-l.png,adult,1,m,n,2,1,2 1,0,0.30,Двое мужчин сажают дерево,"Г'оляйык  накоён,ын  в'ытв'ыт",1,inverse,1,1,1,1,1,4163,AVP,
K04,1,50,15,makelaugh-1-1-r.png,old,0,m,f,1,1,1 1,1,0.30,Дедушка смешит бабушку,Ынпыӄлавола.. ынпыӄлавола.. чего он? ынпыӄлавола ку.. кокотгайпын' ынпыӈэв',1,direct,1,1,1,1,1,3317,AXAVP,смеется над
K04,1,51,16,boil-2-2-r.png,adult,1,f,n,2,2,2 2,0,0.30,Две женщины варят две курицы,Н'авык'к'алюйык   накопаньн'ын  курица,1,inverse,1,1,0,1,0,2478,AVP,
K04,1,52,17,teach-2-1-l.png,adult,1,m,f,2,1,2 1,1,0.30,Двое мужчин учат одну женщину,Ын.. г'оляйта нэкунгыйилэньн'ын  н'авык'к'алю,1,inverse,1,1,1,1,1,5444,AVP,воспитывает
K04,1,53,18,hang-1-2-l.png,old,0,m,n,1,2,1 2,0,0.30,Дедушка вешает две картины,Г'олята  коннёпаньн'ынэн  картина,1,direct,1,1,1,1,0,2895,AVP,
K04,1,54,19,dress-2-2-r.png,old,1,m,f,2,2,2 2,1,0.30,Два дедушки одевают двух бабушек,"Ынпыӄлаволыйык наконэпынан, .. неправильно нако.. наконэпын'аньн'ын пальто",1,inverse,1,1,0,1,0,3214,AVXVP,
K04,1,55,20,pull-1-1-r.png,child,1,f,n,1,1,1 1,0,0.30,Девочка везёт санки,Н'авык'к'алюта  уетик что делает? кыг'аг'ан'нэн,1,direct,1,1,1,1,1,1416,APXV,
K04,1,56,21,cut_hair-1-2-l.png,child,0,f,m,1,2,1 2,1,0.30,Девочка стрижет двух мальчиков,Н'авык'к'алюта  копаен'нэн  к'айыкминыт,1,direct,1,1,1,2,1,1902,AVP,
K04,1,57,22,burn-2-1-l.png,old,1,f,n,2,1,2 1,0,0.30,Две бабушки сжигают книгу,Ынпын'эпэлякыйык  нэкункэнгэв'н'ын  книга,1,inverse,1,1,1,1,1,2137,AVP,
K04,1,58,23,wash-1-1-r.png,old,0,m,f,2,1,2 1,1,0.30,Дедушка моет бабушку,Г'олята кукуплев'н.. кокопляв'н'ынэн ынпыӈэв',1,direct,1,1,1,1,1,4191,AVP,
K04,1,59,24,saw-2-2-r.png,adult,1,m,n,2,2,2 2,0,0.30,Два мужчины пилят два бревна,Г'олят  купиляткун'и,1,intransitive,NA,NA,NA,NA,NA,2186,AV,
K04,1,60,25,shoot-2-1-l.png,child,1,f,m,2,1,2 1,1,0.30,Две девочки стреляют в мальчика,Н'авык'к'алюйык.. куй.. нэку... н'авык'к'алюйык нэкулк'эйнэв'н'ын к'айыкмин'ын,1,inverse,1,1,1,1,1,2824,AVAVP,
K04,1,61,26,open-1-2-l.png,old,0,f,n,1,2,1 2,0,0.30,Бабушка открывает две двери ,Аняпэля  кунв'эн'эньн'ынин  тыллытыл,1,direct,1,1,1,1,0,2557,AVP,
K04,1,62,27,treat-2-2-r.png,adult,1,f,m,2,2,2 2,1,0.30,Две женщины лечат двух мужчин,Н'авык'к'алюйык  нэкуйылн'ын г'олян' лекарство,1,inverse,1,1,0,NA,NA,4208,AVXP,дает мужчинам лекарство
K04,1,63,28,throw-1-1-r.png,child,0,f,n,2,1,2 1,0,0.30,Девочка бросает мяч,"Н'авык'к'алю  кок,аплыткун'",1,incorporation,NA,NA,NA,NA,NA,1657,AV,
K04,1,64,29,scold-1-2-l.png,child,0,m,f,1,2,1 2,1,0.30,Мальчик ругает двух девочек,К'айыкмин'а кокытг'айн'ан'нэн  ӈавык'к'алют,1,direct,1,1,1,2,1,3358,AVP,
K04,1,65,30,cover-2-1-l.png,adult,1,m,n,2,1,2 1,0,0.30,Два мужчины накрывают цветок ,"Г'оляйык  накоятопн,ын  в'ытв'ыт",1,inverse,1,1,1,1,1,2434,AVP,хотят накрыть - желательная
K04,1,66,31,hit-1-1-r.png,child,0,m,f,1,1,1 1,1,0.30,Мальчик бьет девочку,К'айыкмин'а копэнын'нэн ӈавык'к'алю,1,direct,1,1,1,1,1,2251,AVP,нападает - переходный
K04,1,67,32,paint-2-2-r.png,adult,1,m,n,2,2,2 2,0,0.30,Два мальчика красят две доски ,Г'оля.. к'айыкмин'ыйык нэ.. на.. я же говорила забыла.. накэняйкэченьн'ын доскат,1,inverse,1,1,0,2,1,1468,AAXVP,
K04,2,4,1,call-2-2-r.png,old,1,f,m,2,2,2 2,1,0.30,Две бабушки зовут двух дедушек,Н'авычӈэйик..  аняпэлякайык нэкукэтг'айн'ив'ыв'  ынпыӄлаволат,1,inverse,1,3,0,2,1,4569,AAVP,
K04,2,5,2,break-1-1-r.png,child,0,m,n,1,1,1 1,0,0.30,Мальчик ломает домик,"че такое? К'айыкмин'а или г'олята [...] г'олята... К'айыкмин'а кукытын,нын яян'а",1,direct,1,1,1,1,1,9004,AXAAAVP,
K04,2,6,3,feed-2-1-l.png,old,1,m,f,2,1,2 1,1,0.30,Два дедушки кормят бабушку,"Ынпыӄлавола  кукейкув,итэйн,нын  аняпэль",1,direct,0,1,1,1,1,3435,AVP,
K04,2,7,4,eat-1-2-l.png,adult,0,f,n,1,2,1 2,0,0.30,Женщина ест два яблока,аняпэляка  кунув'нын  ывныг'нын,1,direct,1,1,1,1,0,2867,AVP,
K04,2,8,5,wake-1-1-r.png,adult,0,f,m,1,1,1 1,1,0.30,Женщина будит мужчину,Н'авычӈэ куныкъевын'нин г'оля,1,direct,1,1,1,1,1,3980,AVP,
K04,2,9,6,pick-2-2-r.png,child,1,m,n,2,2,2 2,0,0.30,Два мальчика срывают два цветка,К'айыкмин'ыйык  нэкупыйг'ын'ныт  в'ытв'ыто,1,inverse,1,2,1,3,0,2596,AVP,
K04,2,12,9,teach-2-2-r.png,adult,1,f,m,2,2,2 2,1,0.30,Две женщины учат двух мужчин,"..Н'авычӈэйык  нэкунынн,эв'н,ын  г'олят",1,inverse,1,1,0,2,1,3899,AVP,
K04,2,13,10,open-1-1-r.png,old,0,m,n,1,1,1 1,0,0.30,Дедушка открывает дверь,Г'олята  кунв'эн'энын'нин   тыллытыл,1,direct,1,1,1,1,1,1669,AVP,
K04,2,14,11,dress-2-1-l.png,old,1,f,m,2,1,2 1,1,0.30,Две бабушки одевают дедушку,...Н'авычӈэ нэкуметг'эпын'нын г'оля,1,inverse,1,1,1,1,1,4034,AVP,
K04,2,15,12,throw-1-2-l.png,child,0,m,n,1,2,1 2,0,0.30,Мальчик бросает два мяча,"К'айыкмин'а  кук,апляткун",1,incorporation,NA,NA,NA,NA,NA,1943,AV,
K04,2,16,13,cut_hair-1-1-r.png,child,0,m,f,1,1,1 1,1,0.30,Мальчик стрижет девочку,К'айыкмин'а ӈавык'к'алюн копаев'н'ын,1,direct,1,1,1,1,1,2979,APV,
K04,2,17,14,cover-2-2-r.png,adult,1,f,n,2,2,2 2,0,0.30,Две женщины накрывают два цветка,"Н'авык'к'алюйык  накойатып'н,ын  в'ытв'ыт",1,inverse,1,1,0,1,0,2270,AVP,
K04,2,18,15,wash-1-2-l.png,old,0,f,m,1,2,1 2,1,0.30,Бабушка моет двух дедушек,аняпэляка  кункупляв'ын'нын  к'ымину,1,direct,1,1,1,3,0,2820,AVP,
K04,2,19,16,paint-2-1-l.png,child,1,f,n,2,1,2 1,0,0.30,Две девочки красят доску,"Н'авык'к'алюйык накэняйкэчен,нын  доскан",1,inverse,1,1,1,1,1,1943,AVP,
K04,2,20,17,give_water-2-2-r.png,adult,1,m,f,2,2,2 2,1,0.30,Два мужчины поят двух женщин,"Олядык нэкудылн,ын алляв,мимыл",1,inverse,1,1,0,NA,NA,4416,AVP,дают сладкую воду
K04,2,22,19,push-2-1-l.png,child,1,m,f,2,1,2 1,1,0.30,Два мальчика толкают девочку,"че за слово? Н,авык,к,алю чан,ъятатэ томгын,",1,other,NA,1,1,NA,NA,4278,AVX,девушка напала
K04,2,23,20,water-1-2-l.png,child,0,m,n,1,2,1 2,0,0.30,Мальчик поливает два цветка,К'айыкмин'а...  куполиван'нын  в'ытв'ытыв',1,direct,1,1,1,3,0,2742,AVP,
K04,2,24,21,pour-1-1-r.png,adult,0,m,f,1,1,1 1,1,0.30,Мужчина обливает женщину,Г'олята  кимлытг'ын'ын'  эльг'а,1,direct,1,1,1,1,1,2719,AVP,
K04,2,25,22,plant-2-2-r.png,adult,1,f,n,2,2,2 2,0,0.30,Две женщины сажают два дерева,"Н'авычӈэйык нэкуйэ... накуйын,нын  утту",1,inverse,1,1,0,3,0,2401,AVP,
K04,2,26,23,tie-1-2-l.png,child,0,m,f,1,2,1 2,1,0.30,Мальчик связывает двух девочек,К'айыкмин'а   кукылтын'нин  ӈавык'к'алют,1,direct,1,1,1,1,0,3201,AVP,
K04,2,27,24,boil-2-1-l.png,old,1,f,n,2,1,2 1,0,0.30,Две бабушки варят курицу,аняпэляка кукуквайнин курицан нэкукуквык,1,direct; inverse,0,1,1,2,0,2889,AVPV,
K04,2,28,25,shoot-2-2-r.png,child,1,m,f,2,2,2 2,1,0.30,Два мальчика стреляют в двух девочек ,"Н'авык'к'алюйик... н'авык'к'алют К'айыкмин'ыйык нэкулк'эйн,ыв'ын'нин",1,inverse,1,1,0,1,0,4096,APAV,
K04,2,29,26,hang-1-1-r.png,old,0,f,n,1,1,1 1,0,0.30,Бабушка вешает картину,аняпэляка  коннёпаньн'ын  картина,1,direct,1,1,1,1,1,3259,AVP,
K04,2,30,27,treat-2-1-l.png,adult,1,m,f,2,1,2 1,1,0.30,Два мужчины лечат женщину ,Г'оляйык нэкутэнмэлэв'ын'нин  эльг'а,1,inverse,1,1,1,1,1,4540,AVP,
K04,2,31,28,pull-1-2-l.png,child,0,m,n,1,2,1 2,0,0.30,Мальчик везёт двое санок,К'айыкмин'а  ... каг'аг'ан'нин  уетыкпэлякат,1,direct,1,1,1,2,1,2034,AVP,
K04,2,32,29,scold-1-1-r.png,child,0,f,m,1,1,1 1,1,0.30,Девочка ругает мальчика ,Н'авык'к'алюта  кокытг'айн'ан'ан  к'айыкмин'ын,1,direct,1,1,1,1,1,2575,AVP,
K04,2,33,30,burn-2-2-r.png,old,1,m,n,2,2,2 2,0,0.30,Два дедушки сжигают две книги ,Г'оляйык книгав' нэкунгын'ев'ын'ын  ,1,inverse,1,1,0,3,0,2799,APV,
K04,2,34,31,hit-1-2-l.png,child,0,f,m,1,2,1 2,1,0.30,Девочка бьет двух мальчиков,Н'авык'к'алюта  копейнын'нэн  к'айыкмин'ат,1,direct,1,1,1,2,1,2316,AVP,
K04,2,35,32,saw-2-1-l.png,old,1,m,n,2,1,2 1,0,0.30,Два дедушки пилят бревно,Г'олята кутуттын'нын купиляткун,1,incorporation; direct,NA,NA,NA,NA,NA,2693,AVV,
K04,2,36,1,give_water-1-2-l.png,adult,0,f,m,1,2,1 2,1,0.30,Женщина поит двух мужчин,Н'авычӈэ  куникв'ычевын'нын  г'олят,1,direct,1,1,1,2,1,2927,AVP,
K04,2,38,3,push-1-1-r.png,child,0,f,m,1,1,1 1,1,0.30,Девочка толкает мальчика,Н'авык'к'алюта кичанг'этан'нын к'айыкмин'ын,1,direct,1,1,1,1,1,2590,AVP,
K04,2,39,4,eat-2-2-r.png,adult,1,m,n,2,2,2 2,0,0.30,Два мужчины едят два яблока,Г'олята нэкугитэйныв'  ыв'нав',1,inverse,1,3,0,3,0,2618,AVP,
K04,2,40,5,pour-2-1-l.png,adult,1,f,m,2,1,2 1,1,0.30,Две женщины обливают мужчину ,Н'авычӈэ нэмлытг'нин г'оля,1,inverse,1,1,1,1,1,2581,AVP,
K04,2,41,6,pick-1-2-l.png,child,0,f,n,1,2,1 2,0,0.30,Девочка срывает два цветка,Н'авык'к'алюта в'ытв'ыт купыйг'ын'нын,1,direct,1,1,1,1,0,1412,APV,
K04,2,42,7,tie-2-2-r.png,child,1,f,m,2,2,2 2,1,0.30,Две девочки связывают двух мальчиков,Н'авык'к'алюйик.. кыв'ын'нын  к'айыкмин'ат,1,direct,0,1,0,2,1,1463,AVP,
K04,2,43,8,carry-1-1-r.png,adult,0,m,n,1,1,1 1,0,0.30,Мужчина несёт ведро,Г'олята  кимтин'нын ведро,1,direct,1,1,1,1,1,1599,AVP,
K04,2,44,9,call-1-2-l.png,old,0,m,f,1,2,1 2,1,0.30,Дедушка зовет двух бабушек ,Г'олята  кэтг'айн'ив'ын'нин  н'авычӈэт,1,direct,1,1,1,2,1,1876,AVP,
K04,2,46,11,feed-1-1-r.png,old,0,f,m,1,1,1 1,1,0.30,Бабушка кормит дедушку,"аняпэляка  кукейкув,итэйн,нын   ынпыӄлавол",1,direct,1,1,1,1,1,3717,AVP,
K04,2,47,12,water-2-2-r.png,child,1,f,n,2,2,2 2,0,0.30,Две девочки поливают два цветка ,Н'авык'к'алюйык  накимлытг'ын'нин  в'ытв'ытыв',1,inverse,1,1,0,3,0,1529,AVP,
K04,2,48,13,wake-2-1-l.png,adult,1,m,f,2,1,2 1,1,0.30,Два мужчины будят женщину ,Г'олята нэкуныкъевын'нин н'авычӈэн,1,inverse,1,1,1,1,1,2828,AVP,
K04,2,49,14,plant-1-2-l.png,adult,0,m,n,1,2,1 2,0,0.30,Мужчина сажает два дерева ,"Г'олята  койын,нын  утту",1,direct,1,1,1,3,0,1426,AVP,
K04,2,50,15,makelaugh-2-2-r.png,old,1,m,f,2,2,2 2,1,0.30,Два дедушки смешат двух бабушек,Г'олята че делают?.. дразнят или че?  г'олята  наконачачгав'ын'нэн  ӈавык'к'алют,1,inverse,1,1,0,2,1,8593,AXAVP,
K04,2,51,16,boil-1-1-r.png,adult,0,f,n,1,1,1 1,0,0.30,Женщина варит курицу,Н'авычӈэ куныкуквайнин  курица,1,direct,1,1,1,1,1,3061,AVP,
K04,2,52,17,teach-1-2-l.png,adult,0,m,f,1,2,1 2,1,0.30,Мужчина учит двух женщин ,"Инэнгыюлэвычг,э кунгыюлэв,н,ынин н,авыккаллю",1,direct,1,1,1,1,0,2368,AVP,учитель учит девочек
K04,2,53,18,hang-2-1-l.png,old,1,m,n,2,1,2 1,0,0.30,Два дедушки вешают картину,Ынпыӄлаволаийк  наконнёпаньн'ын  картина,1,inverse,1,1,1,1,1,3765,AVP,
K04,2,55,20,pull-2-2-r.png,child,1,f,n,2,2,2 2,0,0.30,Две девочки везут двое санок ,забыла...  Н'авык'к'алюйык  накуг'аг'ан'нэн  уетыку,1,inverse,1,1,0,3,0,2306,AVP,
K04,2,56,21,cut_hair-2-1-l.png,child,1,f,m,2,1,2 1,1,0.30,Две девочки стригут мальчика,Н'авык'к'алюйык  накопаев'н'ын  к'айыкмин'ын,1,inverse,1,1,1,1,1,2168,AVP,
K04,2,57,22,burn-1-2-l.png,old,0,f,n,1,2,1 2,0,0.30,Бабушка сжигает две книги,Ынпыӈэв’э  кунгын'ев'ын'ын  книгав',1,direct,1,1,1,3,0,2088,AVP,
K04,2,58,23,wash-2-2-r.png,old,1,m,f,2,2,2 2,1,0.30,Два дедушки моют двух бабушек,Ынпыӄлаволаийк на.. накункупляв'ын'нын ынпыӄ... ынпыӈэв’э что ли,1,inverse,1,1,0,1,0,3356,AVPP,AVPPX?
K04,2,59,24,saw-1-1-r.png,adult,0,m,n,1,1,1 1,0,0.30,Мужчина пилит бревно,Г'олята купиляткун'нын уттыту,1,direct,1,1,1,1,1,2857,AVP,
K04,2,60,25,shoot-1-2-l.png,child,0,f,m,1,2,1 2,1,0.30,Девочка стреляет в двух мальчиков ,Н'авык'к'алюта кулк'эйнэвын'нин к'айыкмин'у,1,direct,1,1,1,3,0,2397,AVP,
K04,2,61,26,open-2-1-l.png,old,1,f,n,2,1,2 1,0,0.30,Две бабушки открывают дверь,Ынпыӈэв’ыйык  нэкунв'эн'энын'нин   тыллытыл,1,inverse,1,1,1,1,1,1954,AVP,
K04,2,62,27,treat-1-1-r.png,adult,0,f,m,1,1,1 1,1,0.30,Женщина лечит мужчину ,Н'авычӈэ  кутэнмэлэв'ын'нин г'оля,1,direct,1,1,1,1,1,2604,AVP,
K04,2,63,28,throw-2-2-r.png,child,1,f,n,2,2,2 2,0,0.30,Две девочки бросают два мяча,Н'авык'к'алю.. Н'авык'к'алюйык к'апыл,1,other,NA,NA,NA,1,0,2179,AP,без глагола
K04,2,64,29,scold-2-1-l.png,child,1,m,f,2,1,2 1,1,0.30,Два мальчика ругают девочку,К'айыкмин'ыйык  накокытг'айн'ан'нэн  ӈавык'к'алют,1,inverse,1,1,1,2,0,2703,AVP,
K04,2,65,30,cover-1-2-l.png,adult,0,m,n,1,2,1 2,0,0.30,Мужчина накрывает два цветка ,"Г'олята  койатып'н,ын  в'ытв'ытыв'",1,direct,1,1,1,3,0,2056,AVP,
K04,2,66,31,hit-2-2-r.png,child,1,m,f,2,2,2 2,1,0.30,Два мальчика бьют двух девочек,К'айыкмин'у напейнын'нэв'  ӈавык'к'алюйик,1,inverse,1,3,0,3,0,2711,AVP,
K04,2,67,32,paint-1-1-r.png,adult,0,m,n,1,1,1 1,0,0.30,Мальчик красит доску,"К'айыкмин'а  кэняйкэчен,нын  доскан",1,direct,1,1,1,1,1,2773,AVP,
K05,1,4,1,call-1-1-r.png,old,0,f,m,1,1,1 1,1,0.40,Бабушка зовёт дедушку,Ынпыӈэв’э  кукумн'аньн'ынин ынпыӄлавол,1,direct,1,1,1,1,1,2227,AVP,
K05,1,5,2,break-2-2-r.png,child,1,m,n,2,2,2 2,0,0.40,Два мальчика ломают два домика,К'айыкмин'ыйык  накунчимав'н'ын  яяпэляк'о,1,inverse,1,1,0,3,0,2654,AVP,
K05,1,6,3,feed-1-2-l.png,old,0,m,f,1,2,1 2,1,0.40,Дедушка кормит двух бабушек,Ынпыӄлаволы..нак кунэв'ыеньн'ынин  ынпыӈэв’,1,direct,1,1,1,1,0,2204,AVP,
K05,1,7,4,eat-2-1-l.png,adult,1,f,n,2,1,2 1,0,0.40,Две женщины едят одно яблоко,Н'авык'к'алюта нэкугитэн'ын яблок,1,inverse,1,1,1,1,1,3371,AVP,
K05,1,8,5,wake-2-2-r.png,adult,1,f,m,2,2,2 2,1,0.40,Две женщины будят двух мужчин,"Н'авычӈа  нэкуеныкъев,н'ынин  г'оляв'э",1,inverse,1,1,0,3,0,3403,AVP,хочет
K05,1,9,6,pick-1-1-r.png,child,0,m,n,1,1,1 1,0,0.40,Мальчик срывает цветок,К'айыкмин'а  куепйын'нин  в'ытв'ыт,1,direct,1,1,1,1,1,2781,AVP,желательная
K05,1,10,7,makelaugh-2-1-l.png,old,1,f,m,2,1,2 1,1,0.40,Две бабушки смешат дедушку,Ынпыӄлаволынак коначачгав'н'ынэн ынпыӈэв’у,1,direct,1,1,1,3,0,3053,AVP,
K05,1,11,8,carry-1-2-l.png,adult,0,f,n,1,2,1 2,0,0.40,Женщина несёт два ведра,"Н'авык'к'алю накуньнын'нин  н'ыччек' ведрат, кулк'ытын' нотайтын'",1,inverse,0,1,1,2,1,2676,AVPVX,инверсив на глаголе - это конечная морфема имени (странное...)
K05,1,12,9,teach-1-1-r.png,adult,0,f,m,1,1,1 1,1,0.40,Женщина учит мужчину,Учителе кунэйочев'н'ынин г'оля,1,direct,1,1,1,1,1,4393,AVP,
K05,1,14,11,dress-1-2-l.png,old,0,f,m,1,2,1 2,1,0.40,Бабушка одевает двух дедушек,...Ынпыӈэв’э гэеллинэв' пальтов',1,past,NA,3,0,3,0,5611,AVP,прош 2
K05,1,15,12,throw-2-1-l.png,child,1,m,n,2,1,2 1,0,0.40,Два мальчика бросают мяч,К'айыкмин'у койэчваллан' к'апла,1,intransitive,0,3,0,1,1,2067,AVP,играют мячом
K05,1,16,13,cut_hair-2-2-r.png,child,1,m,f,2,2,2 2,1,0.40,Два мальчика стригут двух девочек,К'айыкмин'ыйык  накопаен'нав'  ӈавык'к'алю,1,inverse,1,3,0,1,0,4423,AVP,
K05,1,17,14,cover-1-1-r.png,adult,0,f,n,1,1,1 1,0,0.40,Женщина накрывает один цветок,Н'авык'к'алюнак  к'айпын'нын  в'ытв'ыт,1,direct,1,1,1,1,1,2179,AVP,
K05,1,18,15,wash-2-1-l.png,old,1,f,m,2,1,2 1,1,0.40,Две бабушки моют одного дедушку,Ынпыӈэв’ыйык  наконкопляв'н'ын ынпыӄлавол,1,inverse,1,1,1,1,1,1878,AVP,
K05,1,19,16,paint-1-2-l.png,child,0,f,n,1,2,1 2,0,0.40,Девочка красит две доски,Н'авык'к'алюта  кокрасканьн'ынин доскав',1,direct,1,1,1,3,0,1693,AVP,
K05,1,20,17,give_water-1-1-r.png,adult,0,m,f,1,1,1 1,1,0.40,Мужчина поит женщину,Г'олята  куенив'ичев'н'ынин  н'авычӈын,1,direct,1,1,1,1,1,3274,AVP,желательная
K05,1,22,19,push-1-2-l.png,child,0,m,f,1,2,1 2,1,0.40,Мальчик толкает двух девочек,...К'айыкмин'а  ганчин'атав'линав'  ӈавык'к'алюв',1,past,NA,3,0,3,0,6106,AVP,прош
K05,1,23,20,water-2-1-l.png,child,1,m,n,2,1,2 1,0,0.40,Два мальчика поливают один цветок,К'айыкмин'ыйык.. накум..накимлытг'ын'ын в'ытв'ыт,1,inverse,1,1,1,1,1,2410,AVP,
K05,1,24,21,pour-2-2-r.png,adult,1,m,f,2,2,2 2,1,0.40,Двое мужчин обливают двух женщин,Г'оляйык.. накимлытг'ын'ав'  ӈавык'к'алюв',1,inverse,1,3,0,3,0,4271,AVP,
K05,1,25,22,plant-1-1-r.png,adult,0,f,n,1,1,1 1,0,0.40,Женщина сажает одно дерево,"Н'авычӈа  коён,нэн уттыут",1,direct,1,1,1,1,1,3166,AVP,
K05,1,26,23,tie-2-1-l.png,child,1,m,f,2,1,2 1,1,0.40,Два мальчика связывают девочку,К'айыкмин'ыйык гакыльтыткулин  ӈавык'к'алю,1,past,NA,1,1,1,1,3045,AVP,прош 2
K05,1,27,24,boil-1-2-l.png,old,0,f,n,1,2,1 2,0,0.40,Бабушка варит две курицы,Ынпыӈэв’э на.. кукукэйвын'нин  курица,1,direct,1,1,1,1,0,2324,AVP,
K05,1,28,25,shoot-1-1-r.png,child,0,m,f,2,1,2 1,1,0.40,Мальчик стреляет в девочку,К'айыкмин'а  кулк'эйнэв'н'ынин  ӈавык'к'алю,1,direct,1,1,1,1,1,4009,AVP,
K05,1,29,26,hang-2-2-r.png,old,1,f,n,2,2,2 2,0,0.40,Две бабушки вешают две картины,Ынпы.. ынпыӈэв’ыйык  накояннёпаньн'ын  картина,1,inverse,1,1,0,1,0,3774,AVP,желат
K05,1,30,27,treat-1-2-l.png,adult,0,m,f,1,2,1 2,1,0.40,Мужчина лечит двух женщин ,Доктора  кунмэчгэв'н'ынин  н'авычӈо,1,direct,1,1,1,3,0,2932,AVP,
K05,1,31,28,pull-2-1-l.png,child,1,m,n,2,1,2 1,0,0.40,Два мальчика везут санки,К'айыкмин'у колк'ылан' ялеконвын' ,1,other,NA,NA,NA,NA,NA,1701,AVV,мальчики идут кататься
K05,1,32,29,scold-2-2-r.png,child,1,f,m,2,2,2 2,1,0.40,Две девочки ругают двух мальчиков,Н'авык'к'алюйык накокытг'айн'ын к'айыкмин'у,1,inverse,1,1,0,3,0,1745,AVP,
K05,1,33,30,burn-1-1-r.png,old,0,m,n,1,1,1 1,0,0.40,Дедушка сжигает книгу,"Ынпыӄлаволанак кун..  кунтын,нин калитг'улу",1,direct,1,1,1,3,0,2014,AVP,"""листочки"""
K05,1,34,31,hit-2-1-l.png,child,1,f,m,2,1,2 1,1,0.40,Две девочки бьют мальчика,Н'авык'к'алю пэннылай к'айыкмэн'ын',1,past,NA,NA,NA,1,1,3239,AVP,"напали на мальчика, непереходный, прош 1"
K05,1,35,32,saw-1-2-l.png,old,0,m,n,1,2,1 2,0,0.40,Дедушка пилит два бревна,"Ынпыӄлавола  нэкупиляткун,нин  утту",1,inverse,0,1,1,3,0,1479,AVP,
K05,1,36,1,give_water-2-1-l.png,adult,1,f,m,2,1,2 1,1,0.40,Две женщины поят мужчину ,Н'авычӈа  нэкуенив'иченьн'ын  г'оля,1,inverse,1,1,1,1,1,3480,AVP,желат
K05,1,37,2,break-1-2-l.png,child,0,f,n,1,2,1 2,0,0.40,Девочка ломает два домика,Н'авык'к'алюнак кунчимав'н'ынин яяпэляк'о,1,direct,1,1,1,3,0,1680,AVP,
K05,1,38,3,push-2-2-r.png,child,1,f,m,2,2,2 2,1,0.40,Две девочки толкают двух мальчиков,...Н'авык'к'алюэ... н'авык'к'алюйык пэннэлай  к'айыкмэн'ын',1,past,NA,NA,NA,1,0,6234,AVP,напали -- дат; прош
K05,1,39,4,eat-1-1-r.png,adult,0,m,n,2,1,2 1,0,0.40,Мужчина ест яблоко,Г'олята  кунун'нин  яблок,1,direct,1,1,1,1,1,2426,AVP,
K05,1,40,5,pour-1-2-l.png,adult,0,f,m,1,2,1 2,1,0.40,Женщина обливает двух мужчин,Н'авычӈа  кимлытг'ын'нин  г'оляв'э,1,direct,1,1,1,3,0,2502,AVP,
K05,1,41,6,pick-2-1-l.png,child,1,f,n,2,1,2 1,0,0.40,Две девочки срывают один цветок,Н'авык'к'алюйык накуйн'ын в'ытв'ыт ,1,inverse,1,1,1,1,1,1709,AVP,
K05,1,42,7,tie-1-1-r.png,child,0,f,m,1,1,1 1,1,0.40,Девочка связывает мальчика,Н'авык'к'алюта  гакылтыткулин'  к'айыкмин'ын,1,past,NA,1,1,1,1,1456,AVP,прош 1
K05,1,43,8,carry-2-2-r.png,adult,1,m,n,2,2,2 2,0,0.40,Двое мужчин несут два ведра,Г'оляйык накунын'нэв' ведрав'э,1,inverse,1,3,0,3,0,2555,AVP,
K05,1,44,9,call-2-1-l.png,old,1,m,f,2,1,2 1,1,0.40,Двое дедушек зовут бабушку,...Ынпыӄлаволыйык накукумн'ыньн'ынин ынпыӈэв’,1,inverse,1,1,1,1,1,5810,AVP,
K05,1,46,11,feed-2-2-r.png,old,1,f,m,2,2,2 2,1,0.40,Две бабушки кормят двух дедушек,а.. Ынпыӈэв’ыйык нэкунэв'ыеньн'ынэв'  ынпыӄлаволо,1,inverse,1,3,0,3,0,3780,AVP,
K05,1,47,12,water-1-1-r.png,child,0,f,n,1,1,1 1,0,0.40,Девочка поливает цветок,Н'авык'к'алюнак кимлытг'ын'нин  в'ытв'ыт,1,direct,1,1,1,1,1,3145,AVP,
K05,1,48,13,wake-1-2-l.png,adult,0,m,f,1,2,1 2,1,0.40,Мужчина будит двух женщин,Г'оляна куеныкъевын'нин  н'авычӈо,1,direct,1,1,1,3,0,2076,AVP,
K05,1,49,14,plant-2-1-l.png,adult,1,m,n,2,1,2 1,0,0.40,Двое мужчин сажают дерево,"Г'оляйык  накоён,ын в'ытв'ыт",1,inverse,1,1,1,1,1,1926,AVP,
K05,1,50,15,makelaugh-1-1-r.png,old,0,m,f,1,1,1 1,1,0.40,Дедушка смешит бабушку,Ынпыӄлавола коначачгав'н'ынэн  ынпыӈэв’,1,direct,1,1,1,1,1,4518,AVP,
K05,1,51,16,boil-2-2-r.png,adult,1,f,n,2,2,2 2,0,0.40,Две женщины варят две курицы,Н'авычӈа нэкукэйвын'нэв'  курицав',1,inverse,1,3,0,3,0,2008,AVP,
K05,1,52,17,teach-2-1-l.png,adult,1,m,f,2,1,2 1,1,0.40,Двое мужчин учат одну женщину,....Г'оляйык нэкунь.. нэкунмитытваньн'ынин  н'авычӈэ,1,inverse,1,1,1,1,1,9182,AVP,
K05,1,53,18,hang-1-2-l.png,old,0,m,n,1,2,1 2,0,0.40,Дедушка вешает две картины,Ынпыӄлаволынак кояннёпаньн'ынэн  картинав',1,direct,1,1,1,3,0,1684,AVP,
K05,1,54,19,dress-2-2-r.png,old,1,m,f,2,2,2 2,1,0.40,Два дедушки одевают двух бабушек,Г'оляйык  накоеныплав'н'ынэн пальтов'э,1,inverse,1,1,0,3,0,1913,AVP,
K05,1,55,20,pull-1-1-r.png,child,1,f,n,1,1,1 1,0,0.40,Девочка везёт санки,Н'авык'к'алю кулк'ытин' ялеконвын' ,1,direct; intransitive,NA,NA,NA,NA,NA,1333,AVV,идет кататься
K05,1,56,21,cut_hair-1-2-l.png,child,0,f,m,1,2,1 2,1,0.40,Девочка стрижет двух мальчиков,Н'авык'к'алюынак копаен'нэн к'айыкмин'у,1,direct,1,1,1,3,0,1526,AVP,
K05,1,57,22,burn-2-1-l.png,old,1,f,n,2,1,2 1,0,0.40,Две бабушки сжигают книгу,Ынпыӈэвыйык нэкунтын'нэв' калив'и,1,inverse,1,3,0,3,0,2055,AVP,
K05,1,58,23,wash-1-1-r.png,old,0,m,f,2,1,2 1,1,0.40,Дедушка моет бабушку,Ынпыӄлаволанак конкопляв'н'ынэн ынпыӈэв’,1,direct,1,1,1,1,1,1975,AVP,
K05,1,59,24,saw-2-2-r.png,adult,1,m,n,2,2,2 2,0,0.40,Два мужчины пилят два бревна,"Г'оляйык  накупиляткун,нэв'  утту",1,inverse,1,3,0,3,0,1548,AVP,
K05,1,60,25,shoot-2-1-l.png,child,1,f,m,2,1,2 1,1,0.40,Две девочки стреляют в мальчика,Н'авык'к'алюйык  нэкулк'эйнэв'н'ын к'айыкмин'ын,1,inverse,1,1,1,1,1,2057,AVP,
K05,1,61,26,open-1-2-l.png,old,0,f,n,1,2,1 2,0,0.40,Бабушка открывает две двери ,Ынпыӈэв’ынэк куенв'эн'эньн'ынин тылло,1,direct,1,1,1,3,0,1539,AVP,желат
K05,1,62,27,treat-2-2-r.png,adult,1,f,m,2,2,2 2,1,0.40,Две женщины лечат двух мужчин,Н'авычӈа  нэкунмэчг'эв'н'ынэв'  г'оляв'э,1,inverse,1,3,0,3,0,3489,AVP,
K05,1,63,28,throw-1-1-r.png,child,0,f,n,2,1,2 1,0,0.40,Девочка бросает мяч,Н'авык'к'алю  куйичвэтын'  к'апла,1,direct,1,1,1,1,1,1734,AVP,играют мячом
K05,1,64,29,scold-1-2-l.png,child,0,m,f,2,1,2 1,1,0.40,Мальчик ругает двух девочек,К'айыкмин'ынак кокытг'айн'ан'нэн  ӈавык'к'алю,1,direct,1,1,1,1,1,1674,AVP,
K05,1,65,30,cover-2-1-l.png,adult,1,m,n,2,1,2 1,0,0.40,Два мужчины накрывают цветок ,Г'оляйык нако... Г'оляйык нак'отопн'ын  в'ытв'ыт,1,inverse,1,1,1,1,1,3758,AVAVP,
K05,1,66,31,hit-1-1-r.png,child,0,m,f,1,1,1 1,1,0.40,Мальчик бьет девочку,К'айыкмин'а койкыплын'нэн  ӈавык'к'алю,1,direct,1,1,1,1,1,2003,AVP,
K05,1,67,32,paint-2-2-r.png,adult,1,m,n,2,2,2 2,0,0.40,Два мальчика красят две доски ,К'айыкмин'ы яллэ.. К'айыкмин'а накокрасканьн'ын доскав'э,1,past; inverse,1,1,0,3,0,2155,AVAVP,мальчики пришли...
K05,2,4,1,call-2-2-r.png,old,1,f,m,2,2,2 2,1,0.40,Две бабушки зовут двух дедушек,Ынпыӈэв’эйык  накукувын'ныныв' ынпыӄлавол,1,inverse,1,3,0,1,0,1970,AVP,
K05,2,5,2,break-1-1-r.png,child,0,m,n,1,1,1 1,0,0.40,Мальчик ломает домик,К'айыкмин'а кокунчимав'н'ын  яяпиль,1,direct,1,1,1,1,1,1818,AVP,
K05,2,6,3,feed-2-1-l.png,old,1,m,f,2,1,2 1,1,0.40,Два дедушки кормят бабушку,"Ынпыӄлавола  нэкуэ...в'нев,инын  ынпыӈэв’э",1,inverse,1,1,1,1,1,1887,AVP,
K05,2,7,4,eat-1-2-l.png,adult,0,f,n,1,2,1 2,0,0.40,Женщина ест два яблока,"Н'а.. Н'авычӈэ кув,итэйнын яблоко",1,direct,1,1,1,1,0,2537,AVP,
K05,2,8,5,wake-1-1-r.png,adult,0,f,m,1,1,1 1,1,0.40,Женщина будит мужчину,"Н'авычӈэ  куныг'эйнев,нын  г'оля",1,direct,1,1,1,1,1,2069,AVP,
K05,2,9,6,pick-2-2-r.png,child,1,m,n,2,2,2 2,0,0.40,Два мальчика срывают два цветка,К'айыкмин'ыйык  каёйэнав'  в'ытв'ыто,1,direct,0,3,0,3,0,3131,AVP,
K05,2,10,7,makelaugh-1-2-l.png,old,0,f,m,1,2,1 2,1,0.40,Бабушка смешит двух дедушек,"Кан,энмыльг,аллан, ынпын,эву",1,intransitive,NA,3,0,3,0,4571,VA,веселятся старушки
K05,2,11,8,carry-2-1-l.png,adult,1,f,n,2,1,2 1,0,0.40,Две женщины несут ведро,Н'авык'к'алюйык наку.. накунн'ин'нын  ведрав'... в'айямитын,1,inverse,1,1,1,3,0,6140,AVPX,
K05,2,12,9,teach-2-2-r.png,adult,1,f,m,2,2,2 2,1,0.40,Две женщины учат двух мужчин,Н'авык'к'алюйык нэкунйэ.... н'авык'к'алюйик... как же учиться? нэкунейучин'нынын г'оляв',1,inverse,1,1,0,3,0,7395,AVXVP,
K05,2,13,10,open-1-1-r.png,old,0,m,n,1,1,1 1,0,0.40,Дедушка открывает дверь,Ынпыӄлавола  кунв'эн'энын'нин   тыллытыл,1,direct,1,1,1,1,1,1810,AVP,
K05,2,14,11,dress-2-1-l.png,old,1,f,m,2,1,2 1,1,0.40,Две бабушки одевают дедушку,Наконпальтовыйин..пын'нын   ынпыӄлавол ынпыӈэв’эйик,1,inverse,1,1,1,1,1,2061,VPA,
K05,2,15,12,throw-1-2-l.png,child,0,m,n,1,2,1 2,0,0.40,Мальчик бросает два мяча,К'айыкмин'ын куйичвитын  к'апылат,1,direct,1,1,1,2,1,1709,AVP,
K05,2,16,13,cut_hair-1-1-r.png,child,0,m,f,1,1,1 1,1,0.40,Мальчик стрижет девочку,К'айыкмин'а  копаев'н'ын  ӈавык'к'алю,1,direct,1,1,1,1,1,1737,AVP,
K05,2,17,14,cover-2-2-r.png,adult,1,f,n,2,2,2 2,0,0.40,Две женщины накрывают два цветка,Н'авык'к'алюйык нак'ай...нак'ой...нак'айпын'нин  в'ытв'ыто,1,inverse,1,1,0,3,0,2441,AVP,
K05,2,18,15,wash-1-2-l.png,old,0,f,m,1,2,1 2,1,0.40,Бабушка моет двух дедушек,Ынпыӈэв’э кокуплев'ын'нын ынпыӄлаволо,1,direct,1,1,1,3,0,2328,AVP,
K05,2,19,16,paint-2-1-l.png,child,1,f,n,2,1,2 1,0,0.40,Две девочки красят доску,Н'авык'к'алюйык  накокраскан'нынын доска,1,inverse,1,1,1,1,1,1471,AVP,
K05,2,20,17,give_water-2-2-r.png,adult,1,m,f,2,2,2 2,1,0.40,Два мужчины поят двух женщин,Г'оляйык  нэкуенив'ычевын'нын  н'авык'к'алю,1,inverse,1,1,0,1,0,3574,AVP,
K05,2,21,18,clean-1-1-r.png,old,0,f,n,1,1,1 1,0,0.40,Бабушка чистит пальто,Ынпыӈэв’энак конмалын'нын пальто,1,direct,1,1,1,1,1,2979,AVP,
K05,2,22,19,push-2-1-l.png,child,1,m,f,2,1,2 1,1,0.40,Два мальчика толкают девочку,К'айыкмин'ыйык..  нэкупынг'ылынын н'авычӈэ...н'авык'к'алю,1,inverse,1,1,1,1,1,5692,AVPP,
K05,2,23,20,water-1-2-l.png,child,0,m,n,1,2,1 2,0,0.40,Мальчик поливает два цветка,К'айыкмин'а  кимлытг'ын'нин  в'ытв'ыто,1,direct,1,1,1,3,0,1447,AVP,
K05,2,24,21,pour-1-1-r.png,adult,0,m,f,1,1,1 1,1,0.40,Мужчина обливает женщину,Г'оляна кимлытг'ын'ын  н'авычӈэ,1,direct,1,1,1,1,1,2523,AVP,
K05,2,25,22,plant-2-2-r.png,adult,1,f,n,2,2,2 2,0,0.40,Две женщины сажают два дерева,"Н'авык'к'алюйык накойын,ныв'  в'ытв'ыто",1,inverse,1,3,0,3,0,2656,AVP,
K05,2,26,23,tie-1-2-l.png,child,0,m,f,1,2,1 2,1,0.40,Мальчик связывает двух девочек,К'айыкмин'а накылг'ытын'нав'  ӈавык'к'алю,1,inverse,0,3,0,1,0,1503,AVP,
K05,2,27,24,boil-2-1-l.png,old,1,f,n,2,1,2 1,0,0.40,Две бабушки варят курицу,Ынпыӈэв’эйык накукукэйвайнин  курица,1,inverse,1,1,1,1,1,1959,AVP,
K05,2,28,25,shoot-2-2-r.png,child,1,m,f,2,2,2 2,1,0.40,Два мальчика стреляют в двух девочек ,"К'айыкмин'ыйык  нэкулк'эйн,ыв'ын'нив'  н'авычӈэ...н'авык'к'алю",1,inverse,1,3,0,1,0,1720,AVPP,
K05,2,29,26,hang-1-1-r.png,old,0,f,n,1,1,1 1,0,0.40,Бабушка вешает картину,Ынпыӈэв’энак кояннёпаньн'ын  картина,1,direct,1,1,1,1,1,2095,AVP,
K05,2,30,27,treat-2-1-l.png,adult,1,m,f,2,1,2 1,1,0.40,Два мужчины лечат женщину ,Г'оля-докторойык  нэкунмэчг'эв'ын'нин  н'авычӈэ,1,inverse,1,1,1,1,1,3241,AVP,
K05,2,31,28,pull-1-2-l.png,child,0,m,n,1,2,1 2,0,0.40,Мальчик везёт двое санок,К'айыкмин'ын каг'аг'ан'нин  уетыку,1,direct,1,1,1,3,0,2458,AVP,
K05,2,32,29,scold-1-1-r.png,child,0,f,m,1,1,1 1,1,0.40,Девочка ругает мальчика ,Н'авык'к'алюнак кокытг'айн'ан'ан  к'айыкмин'ын,1,direct,1,1,1,1,1,1893,AVP,
K05,2,33,30,burn-2-2-r.png,old,1,m,n,2,2,2 2,0,0.40,Два дедушки сжигают две книги ,Ынпыӄлаволанак нэкун'тын'ыв' калив',1,inverse,1,3,0,3,0,1834,AVP,
K05,2,34,31,hit-1-2-l.png,child,0,f,m,1,2,1 2,1,0.40,Девочка бьет двух мальчиков,"Н,авык,к,алю пэнне к,айыкмэн,ын,",1,past,NA,NA,NA,1,0,2514,AVP,
K05,2,35,32,saw-2-1-l.png,old,1,m,n,2,1,2 1,0,0.40,Два дедушки пилят бревно,"Ынпыӄлаволалак  нэкупиляткун,нын  уттыут",1,inverse,1,1,1,1,1,2012,AVP,
K05,2,36,1,give_water-1-2-l.png,adult,0,f,m,1,2,1 2,1,0.40,Женщина поит двух мужчин,Н'авычӈэ  куенив'ычевын'нын  г'оляв',1,direct,1,1,1,3,0,3147,AVP,
K05,2,37,2,break-2-1-l.png,child,1,f,n,2,1,2 1,0,0.40,Две девочки ломают домик,Н'авык'к'алюйык накончимав'ын'нин  яяпиль,1,inverse,1,1,1,1,1,1633,AVP,
K05,2,38,3,push-1-1-r.png,child,0,f,m,1,1,1 1,1,0.40,Девочка толкает мальчика,Н'авык'к'алюнак купынг'ылынын к'айыкмин'ын,1,direct,1,1,1,1,1,1941,AVP,
K05,2,39,4,eat-2-2-r.png,adult,1,m,n,2,2,2 2,0,0.40,Два мужчины едят два яблока,Г'оляв' коляпылан'  яблоко,1,intransitive,0,3,0,1,0,2049,AVP,
K05,2,40,5,pour-2-1-l.png,adult,1,f,m,2,1,2 1,1,0.40,Две женщины обливают мужчину ,Н'авык'к'алюйык  нэкимлытг'ын'нин г'оля,1,inverse,1,1,1,1,1,1459,AVP,
K05,2,41,6,pick-1-2-l.png,child,0,f,n,1,2,1 2,0,0.40,Девочка срывает два цветка,Н'авык'к'алюнак  каёйэнав'  в'ытв'ыто,1,direct,1,3,0,3,0,1583,AVP,
K05,2,42,7,tie-2-2-r.png,child,1,f,m,2,2,2 2,1,0.40,Две девочки связывают двух мальчиков,Н'авык'к'алюйык  накылг'ытын'нин  к'айыкмин'у,1,inverse,1,1,0,3,0,1231,AVP,
K05,2,43,8,carry-1-1-r.png,adult,0,m,n,1,1,1 1,0,0.40,Мужчина несёт ведро,Г'олята  кулк'ытын аймын'ав',1,direct,1,1,1,3,0,3434,AVP,
K05,2,44,9,call-1-2-l.png,old,0,m,f,1,2,1 2,1,0.40,Дедушка зовет двух бабушек ,Ынпыӄлавола накукувын'нынын ынпыӈэв’,1,inverse,0,1,1,1,0,2038,AVP,
K05,2,45,10,clean-2-1-l.png,old,1,m,n,2,1,2 1,0,0.40,Два дедушки чистят пальто ,Ынпыӄлаволайык нако.. накомэлэн... Ынпыӄлаволайык накучистинын'нын пальто,1,inverse,1,1,1,1,1,2328,AVAVP,
K05,2,46,11,feed-1-1-r.png,old,0,f,m,1,1,1 1,1,0.40,Бабушка кормит дедушку,"Ынпыӈэв’эна  куев'нев,инын ынпыӄлавол",1,direct,1,1,1,1,1,1324,AVP,
K05,2,47,12,water-2-2-r.png,child,1,f,n,2,2,2 2,0,0.40,Две девочки поливают два цветка ,Н'авык'к'алюйык  накимлытг'ын'нав'  в'ытв'ыто,1,inverse,1,3,0,3,0,1253,AVP,
K05,2,48,13,wake-2-1-l.png,adult,1,m,f,2,1,2 1,1,0.40,Два мужчины будят женщину ,Г'оляйык нэкуеныкъевын'нин  н'авычӈэ,1,inverse,1,1,1,1,1,1452,AVP,
K05,2,49,14,plant-1-2-l.png,adult,0,m,n,1,2,1 2,0,0.40,Мужчина сажает два дерева ,"Г'олянак койын,ныв' в'ытв'ыто",1,direct,1,3,0,3,0,1461,AVP,
K05,2,50,15,makelaugh-2-2-r.png,old,1,m,f,2,2,2 2,1,0.40,Два дедушки смешат двух бабушек,Ынпыӈэв’это ынпыӄлавол  куйичвалан,1,intransitive,0,NA,NA,NA,NA,3404,APV,
K05,2,51,16,boil-1-1-r.png,adult,0,f,n,1,1,1 1,0,0.40,Женщина варит курицу,Н'авычӈэ копаньн'ынин  курицав',1,direct,1,1,1,3,0,2122,AVP,
K05,2,52,17,teach-1-2-l.png,adult,0,m,f,1,2,1 2,1,0.40,Мужчина учит двух женщин ,"Г'оля накумитетвайнен,ннын  н'авычӈэ",1,inverse,0,1,1,1,0,3610,AVP,
K05,2,53,18,hang-2-1-l.png,old,1,m,n,2,1,2 1,0,0.40,Два дедушки вешают картину,Ынпыӄлаволаийк  накояннёпаньн'ын  картина,1,inverse,1,1,1,1,1,2323,AVP,
K05,2,54,19,dress-1-1-r.png,old,0,m,f,1,1,1 1,1,0.40,Дедушка одевает бабушку,Ынпыӄлаволана конег'эпын'нын  ынпыӈэв’э,1,direct,1,1,1,1,1,1572,AVP,
K05,2,55,20,pull-2-2-r.png,child,1,f,n,2,2,2 2,0,0.40,Две девочки везут двое санок ,Н'авык'к'алюйык гэв'эв'лин ялеконвын',1,past,NA,NA,NA,NA,NA,2729,AVV,
K05,2,56,21,cut_hair-2-1-l.png,child,1,f,m,2,1,2 1,1,0.40,Две девочки стригут мальчика,Н'авык'к'алюйык накопаев'н'ын  к'айыкмин'ын,1,inverse,1,1,1,1,1,1498,AVP,
K05,2,57,22,burn-1-2-l.png,old,0,f,n,1,2,1 2,0,0.40,Бабушка сжигает две книги,Ынпыӈэв’э кун'тын'ын калив',1,direct,1,1,1,3,0,1488,AVP,
K05,2,58,23,wash-2-2-r.png,old,1,m,f,2,2,2 2,1,0.40,Два дедушки моют двух бабушек,Ынпыӄлаволайык нэконкуплев'ын'нын ынпыӈэв’о,1,inverse,1,1,0,3,0,1280,AVP,
K05,2,59,24,saw-1-1-r.png,adult,0,m,n,1,1,1 1,0,0.40,Мужчина пилит бревно,"Г'олята купиляткун,нын  утту",1,direct,1,1,1,3,0,1573,AVP,
K05,2,60,25,shoot-1-2-l.png,child,0,f,m,1,2,1 2,1,0.40,Девочка стреляет в двух мальчиков ,Н'авык'к'алюна кулк'эйнэвын'нин к'айыкмин'у,1,direct,1,1,1,3,0,1211,AVP,
K05,2,61,26,open-2-1-l.png,old,1,f,n,2,1,2 1,0,0.40,Две бабушки открывают дверь,Ынпыӈэв’эйык  нэкунв'эн'энын'нин   тыллытыл,1,inverse,1,1,1,1,1,1658,AVP,
K05,2,62,27,treat-1-1-r.png,adult,0,f,m,1,1,1 1,1,0.40,Женщина лечит мужчину ,Н'а...н'авычӈэ  кунмэчг'эв'ын'нин  г'оля,1,direct,1,1,1,1,1,5934,AVP,
K05,2,63,28,throw-2-2-r.png,child,1,f,n,2,2,2 2,0,0.40,Две девочки бросают два мяча,Н'авык'к'алюйик..н'авык'к'алю  куйичвилын  к'апылат,1,direct,0,3,0,2,1,1241,AVP,
K05,2,64,29,scold-2-1-l.png,child,1,m,f,2,1,2 1,1,0.40,Два мальчика ругают девочку,К'айыкмин'ыйык  накокытг'айн'ан'нэн  н'авык'к'алю,1,inverse,1,1,1,1,1,1625,AVP,
K05,2,65,30,cover-1-2-l.png,adult,0,m,n,1,2,1 2,0,0.40,Мужчина накрывает два цветка ,Г'олята к'айпын'нин  в'ытв'ыто,1,direct,1,1,1,3,0,2053,AVP,
K05,2,66,31,hit-2-2-r.png,child,1,m,f,2,2,2 2,1,0.40,Два мальчика бьют двух девочек,К'айыкмин'ыйык накойкыплын'нэн  н'авык'к'алю,1,inverse,1,1,0,1,0,2569,AVP,
K05,2,67,32,paint-1-1-r.png,adult,0,m,n,1,1,1 1,0,0.40,Мальчик красит доску,К'айыкмин'а кокраскан'нынин доска,1,direct,1,1,1,1,1,2316,AVP,
K06,1,4,1,call-1-1-r.png,old,0,f,m,1,1,1 1,1,0.15,Бабушка зовёт дедушку,Ынпыӈэв’э  кыг'эйн'эв'н'ынин  ынпыӄлавол ,1,direct,1,1,1,1,1,3286,AVP,
K06,1,5,2,break-2-2-r.png,child,1,m,n,2,2,2 2,0,0.15,Два мальчика ломают два домика,"К'айыкмин'ыйык  накунчимав'н'ынав'  яя,пиляк'ыт",1,inverse,1,3,0,2,1,1459,AVP,
K06,1,6,3,feed-1-2-l.png,old,0,m,f,1,2,1 2,1,0.15,Дедушка кормит двух бабушек,"Ынпыӄлавола  кунэв,ыеньн'ынин  ынпыӈэв’ыт",1,direct,1,1,1,2,1,2517,AVP,
K06,1,7,4,eat-2-1-l.png,adult,1,f,n,2,1,2 1,0,0.15,Две женщины едят одно яблоко,Эльг'ат  нэкунун'ын  яблокан,1,inverse,1,1,1,1,1,3587,AVP,
K06,1,8,5,wake-2-2-r.png,adult,1,f,m,2,2,2 2,1,0.15,Две женщины будят двух мужчин,"Эльг'ат  нэкуныкйэв,н'ынэв'  г'олят",1,inverse,1,3,0,2,1,3311,AVP,
K06,1,9,6,pick-1-1-r.png,child,0,m,n,1,1,1 1,0,0.15,Мальчик срывает цветок,К'айыкмин'а кэкминьн'ынин тык'лэн'тогин'ин,1,direct,1,1,1,1,1,1601,AVP,берет семя
K06,1,10,7,makelaugh-2-1-l.png,old,1,f,m,2,1,2 1,1,0.15,Две бабушки смешат дедушку,Чачамйа наконачачгав'н'ын  ынпыӄлавол,1,inverse,1,1,1,1,1,2364,AVP,
K06,1,11,8,carry-1-2-l.png,adult,0,f,n,1,2,1 2,0,0.15,Женщина несёт два ведра,Н'ыпиль.. Н'авыткатпэляк'а  куньнын'нин мэмлыёчго,1,direct,1,1,1,3,0,2120,AVP,
K06,1,12,9,teach-1-1-r.png,adult,0,f,m,1,1,1 1,1,0.15,Женщина учит мужчину,Эльг'анак  кунгыюлэв'н'ынин  г'оля [звонит телефон],1,direct,1,1,1,1,1,2887,AVP,
K06,1,13,10,open-2-2-r.png,old,1,m,n,2,2,2 2,0,0.15,Двое дедушек открывают две двери,Ынпыӄлаволыт кун.. нэкунв'эн'эньн'ынэв' топэлн'ыт,1,inverse,1,3,0,2,1,2560,AVP,
K06,1,14,11,dress-1-2-l.png,old,0,f,m,1,2,1 2,1,0.15,Бабушка одевает двух дедушек,Чачамйа конэчг'эпав'н'ынэн аа... ынпыӄлаволыт,1,direct,1,1,1,2,1,2227,AVP,
K06,1,15,12,throw-2-1-l.png,child,1,m,n,2,1,2 1,0,0.15,Два мальчика бросают мяч,"К'айыкмин'ыт  нэкунын'лын'ын  к,апыл",1,inverse,1,1,1,1,1,1394,AVP,
K06,1,16,13,cut_hair-2-2-r.png,child,1,m,f,2,2,2 2,1,0.15,Два мальчика стригут двух девочек,К'айыкмин'а  накопаеньн'ав' навыткатпиляк'ыт,1,inverse,1,3,0,2,1,2173,AVP,
K06,1,17,14,cover-1-1-r.png,adult,0,f,n,1,1,1 1,0,0.15,Женщина накрывает один цветок,Н'авыткатпэляк'а  к'айпын'нин  тык'лэн'тогин'ын,1,direct,1,1,1,1,1,1378,AVP,
K06,1,18,15,wash-2-1-l.png,old,1,f,m,2,1,2 1,1,0.15,Две бабушки моют одного дедушку,Чачамйа  наконмытн'ынын  ынпыӄлавол,1,inverse,1,1,1,1,1,1524,AVP,телефон звонит
K06,1,19,16,paint-1-2-l.png,child,0,f,n,1,2,1 2,0,0.15,Девочка красит две доски,Н'авыткатпэляк'а  кэняйкэченьн'нэн утт..утту,1,direct,1,1,1,3,0,1196,AVP,
K06,1,20,17,give_water-1-1-r.png,adult,0,m,f,1,1,1 1,1,0.15,Мужчина поит женщину,Г’олянак  куникв'иченьн'ынин  эльг'а,1,direct,1,1,1,1,1,2782,AVP,
K06,1,21,18,clean-2-2-r.png,old,1,f,n,2,2,2 2,0,0.15,Две бабушки чистят два пальто,"Чачамйыт...  на.. нако,айт.. након.. након,айкытваньн'ынат  пальтов'",1,inverse,1,2,1,3,0,1523,AVP,
K06,1,22,19,push-1-2-l.png,child,0,m,f,1,2,1 2,1,0.15,Мальчик толкает двух девочек,К'айыкмин'а  кун... купынг'ылын'нин навыткатпиляк'ыт,1,direct,1,1,1,2,1,1328,AVP,
K06,1,23,20,water-2-1-l.png,child,1,m,n,2,1,2 1,0,0.15,Два мальчика поливают один цветок,К'айыкмин'а нак.. на..кунвилэн'ынын тык'лэн'тогин'ын,1,inverse,1,1,1,1,1,1610,AVP,"""намокают их"""
K06,1,24,21,pour-2-2-r.png,adult,1,m,f,2,2,2 2,1,0.15,Двое мужчин обливают двух женщин,Г’олят  нэкунвилэн'ынэт эльг'ат,1,inverse,1,2,1,2,1,1867,AVP,
K06,1,25,22,plant-1-1-r.png,adult,0,f,n,1,1,1 1,0,0.15,Женщина сажает одно дерево,"Эльг'анак  кунмэйн'эв'н,ынин  уттыут",1,direct,1,1,1,1,1,1502,AVP,
K06,1,26,23,tie-2-1-l.png,child,1,m,f,2,1,2 1,1,0.15,Два мальчика связывают девочку,К'айыкмин'а накукылтын'ын  н'авыткатпиль,1,inverse,1,1,1,1,1,1735,AVP,
K06,1,27,24,boil-1-2-l.png,old,0,f,n,1,2,1 2,0,0.15,Бабушка варит две курицы,...Чачамйа  копаньн'ынэн  г'итутг'ул,1,direct,1,1,1,1,0,3721,AVP,гуся
K06,1,28,25,shoot-1-1-r.png,child,0,m,f,2,1,2 1,1,0.15,Мальчик стреляет в девочку,К'айыкмин'а  кулк'эйн'эв'н'ынин  навыткатпиль,1,direct,1,1,1,1,1,1735,AVP,
K06,1,29,26,hang-2-2-r.png,old,1,f,n,2,2,2 2,0,0.15,Две бабушки вешают две картины,Ынпыӈэв’а... аа.. Ынпыӈэв’а... наконнёпаньн'ын  калэгин'ыт,1,inverse,1,1,0,2,1,1355,AXAVP,
K06,1,30,27,treat-1-2-l.png,adult,0,m,f,1,2,1 2,1,0.15,Мужчина лечит двух женщин ,Г’олянак  кунмэлэв'н'ынин  эльг'ат,1,direct,1,1,1,2,1,1884,AVP,
K06,1,31,28,pull-2-1-l.png,child,1,m,n,2,1,2 1,0,0.15,Два мальчика везут санки,К'айыкмин'а накуг'аг'апын'ын  уетик,1,inverse,1,1,1,1,1,1289,AVP,
K06,1,32,29,scold-2-2-r.png,child,1,f,m,2,2,2 2,1,0.15,Две девочки ругают двух мальчиков,Н'авыткатпэляк'а  накокытг'айн'ан'нав'  к'айыкмин'ыт,1,inverse,1,3,0,2,1,1233,AVP,
K06,1,33,30,burn-1-1-r.png,old,0,m,n,1,1,1 1,0,0.15,Дедушка сжигает книгу,Ынпыӄлавола  кункэнгэв'н'ынин  каликал,1,direct,1,1,1,1,1,2451,AVP,
K06,1,34,31,hit-2-1-l.png,child,1,f,m,2,1,2 1,1,0.15,Две девочки бьют мальчика,Н'авыткатпэляк'а нако...накойкыплын'ын к'айыкмин'ын,1,inverse,1,1,1,1,1,1064,AVP,
K06,1,35,32,saw-1-2-l.png,old,0,m,n,1,2,1 2,0,0.15,Дедушка пилит два бревна,Ынпыӄлавола  кучвин'нин  уттыт,1,direct,1,1,1,2,1,2644,AVP,
K06,1,36,1,give_water-2-1-l.png,adult,1,f,m,2,1,2 1,1,0.15,Две женщины поят мужчину ,Эль... эльг'ат  нэкуникв'иченьн'ын  г'оля,1,inverse,1,1,1,1,1,3673,AVP,
K06,1,37,2,break-1-2-l.png,child,0,f,n,1,2,1 2,0,0.15,Девочка ломает два домика,Н'авыткатпиляк'а кунчимав'н'ынин.. утты.. яяпэляк'ыт ,1,direct,1,1,1,2,1,1312,AVPP,
K06,1,39,4,eat-1-1-r.png,adult,0,m,n,2,1,2 1,0,0.15,Мужчина ест яблоко,[договаривает про прошлое на русском] Г’олянак  кунун'нин  яблокан,1,direct,1,1,1,1,1,2408,AVP,
K06,1,40,5,pour-1-2-l.png,adult,0,f,m,1,2,1 2,1,0.15,Женщина обливает двух мужчин,Эльг’анак кунвилэв'н'ынин .. г'олят,1,direct,1,1,1,2,1,1485,AVP,
K06,1,41,6,pick-2-1-l.png,child,1,f,n,2,1,2 1,0,0.15,Две девочки срывают один цветок,Н'авытк'атпэляк'ыт нэкунк'ун'ын тык'лэн'тогин'ын,1,inverse,1,1,1,1,1,1144,AVP,
K06,1,42,7,tie-1-1-r.png,child,0,f,m,1,1,1 1,1,0.15,Девочка связывает мальчика,Н'авытк'атпиляк'а  кукылтын'нин  к'айыкмин'ын,1,direct,1,1,1,1,1,1502,AVP,
K06,1,43,8,carry-2-2-r.png,adult,1,m,n,2,2,2 2,0,0.15,Двое мужчин несут два ведра,Г’олят накуньнын'нэв' мэмлыёчго,1,inverse,1,3,0,3,0,2049,AVP,
K06,1,44,9,call-2-1-l.png,old,1,m,f,2,1,2 1,1,0.15,Двое дедушек зовут бабушку,Ынпыӄлаволыт нэкуг'эйн'эв'н'нын чачамэ,1,inverse,1,1,1,1,1,1649,AVP,
K06,1,45,10,clean-1-2-l.png,old,0,m,n,2,2,2 2,0,0.15,Дедушка чистит два пальто,Ынпыӄлавола кон'айт.. кон'айк'ытв'ан'нэн пальто,1,direct,1,1,0,1,0,3585,AVP,
K06,1,46,11,feed-2-2-r.png,old,1,f,m,2,2,2 2,1,0.15,Две бабушки кормят двух дедушек,"Чачамйа  нэкунэв,ъеньн'ынэв'  ынпыӄлаволыт",1,inverse,1,3,0,2,1,2619,AVP,
K06,1,47,12,water-1-1-r.png,child,0,f,n,1,1,1 1,0,0.15,Девочка поливает цветок,Н'авытк'атпэляк'а кунвилэв'н'ынин тык'лэн'тогин'ын,1,direct,1,1,1,1,1,2401,AVP,
K06,1,48,13,wake-1-2-l.png,adult,0,m,f,1,2,1 2,1,0.15,Мужчина будит двух женщин,Г'олянак куныкъев'н'ынин элг'ат,1,direct,1,1,1,2,1,1468,AVP,
K06,1,49,14,plant-2-1-l.png,adult,1,m,n,2,1,2 1,0,0.15,Двое мужчин сажают дерево,Г’олят  нэкунмэйн'эв'н'ын  уттыут,1,inverse,1,1,1,1,1,2125,AVP,
K06,1,50,15,makelaugh-1-1-r.png,old,0,m,f,1,1,1 1,1,0.15,Дедушка смешит бабушку,Ынпыӄлавола коначачгав'н'ынэн чачамэ,1,direct,1,1,1,1,1,2305,AVP,
K06,1,51,16,boil-2-2-r.png,adult,1,f,n,2,2,2 2,0,0.15,Две женщины варят две курицы,"Эльг,ата кукупаньн,ынин г,итутг,улу",1,direct,0,1,0,3,0,1786,AVP,
K06,1,52,17,teach-2-1-l.png,adult,1,m,f,2,1,2 1,1,0.15,Двое мужчин учат одну женщину,Г’олят нэкунгыюлэв'н'ын эльг'а,1,inverse,1,1,1,1,1,3318,AVP,
K06,1,53,18,hang-1-2-l.png,old,0,m,n,1,2,1 2,0,0.15,Дедушка вешает две картины,Ынпыӄлавола  коннёпаньн'ынэн  картинкав',1,direct,1,1,1,3,0,1369,AVP,
K06,1,54,19,dress-2-2-r.png,old,1,m,f,2,2,2 2,1,0.15,Два дедушки одевают двух бабушек,Ынпыӄлаволыт  наконэчг'эпаньн'ынэв'  чачамйыт,1,inverse,1,3,0,2,1,2719,AVP,
K06,1,55,20,pull-1-1-r.png,child,1,f,n,1,1,1 1,0,0.15,Девочка везёт санки,Н'авытк'атпиляка каг'а.. каг'ай... каг'аг'айпын'нэн уетик,1,direct,1,1,1,1,1,1308,AVP,
K06,1,56,21,cut_hair-1-2-l.png,child,0,f,m,1,2,1 2,1,0.15,Девочка стрижет двух мальчиков,Н'авытк'атпиляк'а копаен'нэн к'айыкминыт,1,direct,1,1,1,2,1,1273,AVP,
K06,1,57,22,burn-2-1-l.png,old,1,f,n,2,1,2 1,0,0.15,Две бабушки сжигают книгу,Ынпыӈэв’э нэкункэнгэв'н'ын каликал,1,inverse,1,1,1,1,1,3435,AVP,
K06,1,58,23,wash-1-1-r.png,old,0,m,f,2,1,2 1,1,0.15,Дедушка моет бабушку,Ынпыӄлавола кунмытн'ынин ынпыӈэв’,1,direct,1,1,1,1,1,1877,AVP,
K06,1,59,24,saw-2-2-r.png,adult,1,m,n,2,2,2 2,0,0.15,Два мужчины пилят два бревна,Г’олят нэкучвин'ынэв' уттыт,1,inverse,1,3,0,2,1,3175,AVP,
K06,1,60,25,shoot-2-1-l.png,child,1,f,m,2,1,2 1,1,0.15,Две девочки стреляют в мальчика,Навыткатпиляк'а  нэку.. нэкун.. нэкулк'эйнэв'н'ын к'айыкмин'ын,1,inverse,1,1,1,1,1,1459,AVP,
K06,1,61,26,open-1-2-l.png,old,0,f,n,1,2,1 2,0,0.15,Бабушка открывает две двери ,Ынпыӈэв’э  кунв'эн'эньн'ынин ... топен'ыт,1,direct,1,1,1,2,1,2132,AVP,
K06,1,62,27,treat-2-2-r.png,adult,1,f,m,2,2,2 2,1,0.15,Две женщины лечат двух мужчин,Эльг'анак  нэкунмэлэв'н'ынэв'  г'олят,1,inverse,1,3,0,2,1,3450,AVP,
K06,1,63,28,throw-1-1-r.png,child,0,f,n,2,1,2 1,0,0.15,Девочка бросает мяч,Н'авытк'атпиляк'а кунын'лын'нин к'апыл,1,direct,1,1,1,1,1,1029,AVP,
K06,1,64,29,scold-1-2-l.png,child,0,m,f,1,2,1 2,1,0.15,Мальчик ругает двух девочек,К'айыкмин'а кокытг'айн'ан'нэн навытк'атпиляк'ыт,1,direct,1,1,1,2,1,1366,AVP,
K06,1,65,30,cover-2-1-l.png,adult,1,m,n,2,1,2 1,0,0.15,Два мужчины накрывают цветок ,"Г’олят  накай... накайпын,ын тык'лэн'тогин'ын",1,inverse,1,1,1,1,1,1879,AVP,
K06,1,66,31,hit-1-1-r.png,child,0,m,f,1,1,1 1,1,0.15,Мальчик бьет девочку,К'айыкмин'а койкыплын'нэн н'авытк'атпиль,1,direct,1,1,1,1,1,1743,AVP,
K06,1,67,32,paint-2-2-r.png,adult,1,m,n,2,2,2 2,0,0.15,Два мальчика красят две доски ,К'айыкмин'ыт накэняйкэчен'ын утт.. уттыт,1,inverse,1,1,0,2,1,1745,AVP,
K06,2,4,1,call-2-2-r.png,old,1,f,m,2,2,2 2,1,0.15,Две бабушки зовут двух дедушек,Эльг'а.. эльг'ат  нэкуг'айн'ив'ын'нив'  ынпыӄлаволат,1,inverse,1,3,0,2,1,1739,AVP,
K06,2,5,2,break-1-1-r.png,child,0,m,n,1,1,1 1,0,0.15,Мальчик ломает домик,К'айыкмин'а кунчимав'н'ынан  яяпиль,1,direct,1,1,1,1,1,1599,AVP,
K06,2,6,3,feed-2-1-l.png,old,1,m,f,2,1,2 1,1,0.15,Два дедушки кормят бабушку,"Ынпыӄлаво.ла.. ыпыӄлаволат  нэкунейкув,итэйнын  ынпыӈэв’э",1,inverse,1,1,1,1,1,1870,AVP,
K06,2,7,4,eat-1-2-l.png,adult,0,f,n,1,2,1 2,0,0.15,Женщина ест два яблока,Эльг'ана  кунув'нын  яблокат,1,direct,1,1,1,2,1,1801,AVP,
K06,2,8,5,wake-1-1-r.png,adult,0,f,m,1,1,1 1,1,0.15,Женщина будит мужчину,Эльг'ата  куныкъевын'нин  г'оля,1,direct,1,1,1,1,1,1618,AVP,
K06,2,9,6,pick-2-2-r.png,child,1,m,n,2,2,2 2,0,0.15,Два мальчика срывают два цветка,"К'айыкмин'ыт  нэкэкминьн,ынэт так,лэн,тогыйн,ын",1,inverse,1,2,1,1,0,1260,AVP,"""берут растения"""
K06,2,10,7,makelaugh-1-2-l.png,old,0,f,m,1,2,1 2,1,0.15,Бабушка смешит двух дедушек,Ынпыӈэв’э  коначачгав'ын'нэн  ынпыӄлаволат,1,direct,1,1,1,2,1,4377,AVP,
K06,2,11,8,carry-2-1-l.png,adult,1,f,n,2,1,2 1,0,0.15,Две женщины несут ведро,К'айык... Н'авыткатпэляка  нэкунн'ин'ныв' мэмлыёчгын,1,inverse,1,3,0,1,1,2136,AAVP,
K06,2,12,9,teach-2-2-r.png,adult,1,f,m,2,2,2 2,1,0.15,Две женщины учат двух мужчин,Эльг'ат нэкуныг'ев'ын'нын  г'олят,1,inverse,1,1,0,2,1,3305,AVP,
K06,2,13,10,open-1-1-r.png,old,0,m,n,1,1,1 1,0,0.15,Дедушка открывает дверь,Ынпыӄлавола  кунв'эн'энын'нин   тыпеллын,1,direct,1,1,1,1,1,1370,AVP,
K06,2,14,11,dress-2-1-l.png,old,1,f,m,2,1,2 1,1,0.15,Две бабушки одевают дедушку,Ынпыӈэв’эт  накэчг'ыпав'нын   ынпыӄлавол,1,inverse,1,1,1,1,1,2854,AVP,
K06,2,15,12,throw-1-2-l.png,child,0,m,n,1,2,1 2,0,0.15,Мальчик бросает два мяча,К'айыкмин'а  кунын'лын'нин  к'апылат,1,direct,1,1,1,2,1,2003,AVP,
K06,2,16,13,cut_hair-1-1-r.png,child,0,m,f,1,1,1 1,1,0.15,Мальчик стрижет девочку,К'айыкмин'а  копаев'н'ын  н'авытк'атпиль,1,direct,1,1,1,1,1,1623,AVP,
